Folder: battery-digital-twin-from-scratch/output

Note: README.md
# battery-digital-twin-from-scratch
Code to accompany building battery digital twins from scratch

# Install

Make sure you are using Python 3.9, 3.10, 3.11, or 3.12.

Create a virtual environment and install the dependencies there.

```
python -m venv .venv
source .venv/bin/activate
pip install -r requirements.txt
```

File: characterization_test_hppc_1.0C.csv
Time [s],Current [A],Power [W],Voltage [V],Capacity [Ah],Energy [Wh]
0.0,1.0,4.15551,4.15566,0.0,0.0
144.527,1.0,4.11209,4.1141,0.0401463,0.165676
295.527,1.0,4.0948,4.09384,0.0820907,0.337765
446.527,1.0,4.08267,4.08289,0.124035,0.50925
597.527,1.0,4.07368,4.07435,0.16598,0.680296
748.527,1.0,4.06703,4.06657,0.207924,0.851017
899.527,1.0,4.06222,4.06169,0.249869,1.0215
1043.48,0.0,0.0,4.11648,0.25,1.02203
1194.48,0.0,0.0,4.12037,0.25,1.02203
1345.48,0.0,0.0,4.12093,0.25,1.02203
1496.48,0.0,0.0,4.12278,0.25,1.02203
1624.8,0.0,0.0,4.10903,0.291667,1.1871
1775.8,0.0,0.0,4.11441,0.291667,1.1871
1926.8,0.0,0.0,4.11485,0.291667,1.1871
2077.8,0.0,0.0,4.11695,0.291667,1.1871
2221.76,1.0,4.06193,4.06309,0.317155,1.29075
2372.76,1.0,4.05709,4.05747,0.3591,1.46101
2523.76,1.0,4.05488,4.05527,0.401044,1.63113
2674.76,1.0,4.05332,4.05304,0.442989,1.80118
2825.76,1.0,4.05178,4.0523,0.484933,1.97116
2976.76,1.0,4.04992,4.04925,0.526878,2.14107
3120.48,0.0,0.0,4.09239,0.541667,2.20096
3271.48,0.0,0.0,4.09546,0.541667,2.20096
3422.48,0.0,0.0,4.0957,0.541667,2.20096
3573.48,0.0,0.0,4.09601,0.541667,2.20096
3701.56,0.0,0.0,4.08473,0.583333,2.36555
3852.56,0.0,0.0,4.09194,0.583333,2.36555
4003.56,0.0,0.0,4.0926,0.583333,2.36555
4154.56,0.0,0.0,4.09459,0.583333,2.36555
4298.77,1.0,4.05233,4.0535,0.594102,2.40921
4449.77,1.0,4.04559,4.04722,0.636047,2.57902
4600.77,1.0,4.04032,4.04222,0.677991,2.7486
4751.77,1.0,4.03459,4.03253,0.719936,2.91795
4902.77,1.0,4.02835,4.02766,0.76188,3.08705
5053.77,1.0,4.02166,4.02259,0.803825,3.25588
5195.96,0.0,0.0,4.06204,0.833333,3.37448
5346.96,0.0,0.0,4.06791,0.833333,3.37448
5497.96,0.0,0.0,4.0682,0.833333,3.37448
5648.96,0.0,0.0,4.07303,0.833333,3.37448
5789.48,5.0,19.4817,3.8951,0.874278,3.53488
5927.63,0.0,0.0,4.06216,0.875,3.5377
6078.63,0.0,0.0,4.06366,0.875,3.5377
6229.63,0.0,0.0,4.06469,0.875,3.5377
6380.63,0.0,0.0,4.06658,0.875,3.5377
6524.77,1.0,4.01101,4.0127,0.912437,3.68815
6675.77,1.0,3.99995,3.99939,0.954381,3.85615
6826.77,1.0,3.99044,3.98892,0.996325,4.02372
6977.77,1.0,3.98164,3.98177,1.03827,4.19091
7128.77,1.0,3.97328,3.97532,1.08021,4.35774
7279.77,1.0,3.96525,3.96736,1.12216,4.52422
7421.95,0.0,0.0,4.01496,1.125,4.53549
7572.95,0.0,0.0,4.01914,1.125,4.53549
7723.95,0.0,0.0,4.02168,1.125,4.53549
7874.95,0.0,0.0,4.02288,1.125,4.53549
8002.57,0.0,0.0,4.00668,1.16667,4.6966
8153.57,0.0,0.0,4.0129,1.16667,4.6966
8304.57,0.0,0.0,4.01624,1.16667,4.6966
8455.57,0.0,0.0,4.01509,1.16667,4.6966
8599.77,1.0,3.96384,3.96525,1.18883,4.78459
8750.77,1.0,3.95084,3.95088,1.23077,4.95056
8901.77,1.0,3.94119,3.94252,1.27271,5.11606
9052.77,1.0,3.93263,3.93132,1.31466,5.28119
9203.77,1.0,3.9246,3.925,1.3566,5.44597
9354.77,1.0,3.91684,3.91718,1.39855,5.61042
9496.68,0.0,0.0,3.95982,1.41667,5.68136
9647.68,0.0,0.0,3.96306,1.41667,5.68136
9798.68,0.0,0.0,3.9655,1.41667,5.68136
9949.68,0.0,0.0,3.96806,1.41667,5.68136
10075.5,0.0,0.0,3.93839,1.45833,5.84036
10226.5,0.0,0.0,3.95791,1.45833,5.84036
10377.5,0.0,0.0,3.96025,1.45833,5.84036
10528.5,0.0,0.0,3.95963,1.45833,5.84036
10673.1,1.0,3.92152,3.92218,1.46475,5.86553
10824.1,1.0,3.90383,3.90385,1.50669,6.02957
10975.1,1.0,3.8935,3.89348,1.54864,6.19309
11126.1,1.0,3.88407,3.88379,1.59058,6.3562
11277.1,1.0,3.87479,3.87558,1.63252,6.51892
11428.1,1.0,3.86535,3.86544,1.67447,6.68125
11570.7,0.0,0.0,3.89382,1.70833,6.81202
11721.7,0.0,0.0,3.90712,1.70833,6.81202
11872.7,0.0,0.0,3.90833,1.70833,6.81202
12023.7,0.0,0.0,3.90964,1.70833,6.81202
12161.6,5.0,18.8101,3.76011,1.72448,6.87295
12298.1,0.0,0.0,3.89622,1.75,6.96858
12449.1,0.0,0.0,3.89816,1.75,6.96858
12600.1,0.0,0.0,3.90117,1.75,6.96858
12751.1,0.0,0.0,3.89957,1.75,6.96858
12894.7,1.0,3.84726,3.84683,1.78186,7.09142
13045.7,1.0,3.83444,3.8332,1.82381,7.25251
13196.7,1.0,3.824,3.82376,1.86575,7.41312
13347.7,1.0,3.81482,3.81475,1.9077,7.57332
13498.7,1.0,3.8065,3.80662,1.94964,7.73315
13649.7,1.0,3.79875,3.80101,1.99158,7.89264
13793.8,0.0,0.0,3.84254,2.0,7.92461
13944.8,0.0,0.0,3.84623,2.0,7.92461
14095.8,0.0,0.0,3.84887,2.0,7.92461
14246.8,0.0,0.0,3.85065,2.0,7.92461
14374.9,0.0,0.0,3.83348,2.04167,8.07882
14525.9,0.0,0.0,3.84015,2.04167,8.07882
14676.9,0.0,0.0,3.8418,2.04167,8.07882
14827.9,0.0,0.0,3.84218,2.04167,8.07882
14971.8,1.0,3.79764,3.79664,2.05883,8.14408
15122.8,1.0,3.78502,3.78682,2.10077,8.30308
15273.8,1.0,3.77571,3.77557,2.14271,8.46164
15424.8,1.0,3.76718,3.76621,2.18466,8.61983
15575.8,1.0,3.75896,3.75974,2.2266,8.77767
15726.8,1.0,3.75086,3.75051,2.26855,8.93516
15870.8,0.0,0.0,3.79046,2.29167,9.02183
16021.8,0.0,0.0,3.79557,2.29167,9.02183
16172.8,0.0,0.0,3.80182,2.29167,9.02183
16323.8,0.0,0.0,3.80038,2.29167,9.02183
16453.8,0.0,0.0,3.76324,2.33333,9.17393
16604.8,0.0,0.0,3.79153,2.33333,9.17393
16755.8,0.0,0.0,3.79368,2.33333,9.17393
16906.8,0.0,0.0,3.79405,2.33333,9.17393
17051.2,1.0,3.75924,3.7589,2.33643,9.18558
17202.2,1.0,3.73734,3.7372,2.37838,9.34269
17353.2,1.0,3.72615,3.72646,2.42032,9.4992
17504.2,1.0,3.71652,3.71645,2.46227,9.65529
17655.2,1.0,3.70767,3.70872,2.50421,9.81099
17806.2,1.0,3.69935,3.70033,2.54615,9.96633
17950.8,0.0,0.0,3.72608,2.58333,10.1037
18101.8,0.0,0.0,3.74319,2.58333,10.1037
18252.8,0.0,0.0,3.74479,2.58333,10.1037
18403.8,0.0,0.0,3.74373,2.58333,10.1037
18544.7,5.0,18.0815,3.617,2.58987,10.1274
18684.8,0.0,0.0,3.73378,2.625,10.2536
18835.8,0.0,0.0,3.73846,2.625,10.2536
18986.8,0.0,0.0,3.74034,2.625,10.2536
19137.8,0.0,0.0,3.7398,2.625,10.2536
19282.2,1.0,3.68792,3.68769,2.65615,10.3687
19433.2,1.0,3.67674,3.67572,2.6981,10.5232
19584.2,1.0,3.6681,3.66651,2.74004,10.6772
19735.2,1.0,3.66053,3.66212,2.78199,10.8309
19886.2,1.0,3.6536,3.65217,2.82393,10.9843
20037.2,1.0,3.64711,3.64662,2.86588,11.1374
20181.8,0.0,0.0,3.69082,2.875,11.1707
20332.8,0.0,0.0,3.69352,2.875,11.1707
20483.8,0.0,0.0,3.69662,2.875,11.1707
20634.8,0.0,0.0,3.69754,2.875,11.1707
20763.9,0.0,0.0,3.6818,2.91667,11.3186
20914.9,0.0,0.0,3.68944,2.91667,11.3186
21065.9,0.0,0.0,3.69109,2.91667,11.3186
21216.9,0.0,0.0,3.69054,2.91667,11.3186
21361.1,1.0,3.64651,3.64769,2.93365,11.3806
21512.1,1.0,3.6355,3.63487,2.9756,11.5333
21663.1,1.0,3.62794,3.62719,3.01754,11.6856
21814.1,1.0,3.62125,3.62037,3.05948,11.8377
21965.1,1.0,3.61495,3.61567,3.10143,11.9894
22116.1,1.0,3.60882,3.60746,3.14337,12.1409
22261.5,0.0,0.0,3.64524,3.16667,12.2249
22412.5,0.0,0.0,3.65061,3.16667,12.2249
22563.5,0.0,0.0,3.65337,3.16667,12.2249
22714.5,0.0,0.0,3.65291,3.16667,12.2249
22843.1,0.0,0.0,3.62275,3.20833,12.3711
22994.1,0.0,0.0,3.64563,3.20833,12.3711
23145.1,0.0,0.0,3.64691,3.20833,12.3711
23296.1,0.0,0.0,3.64702,3.20833,12.3711
23440.7,1.0,3.61403,3.61453,3.21132,12.3819
23591.7,1.0,3.5974,3.59705,3.25326,12.533
23742.7,1.0,3.58909,3.58843,3.29521,12.6838
23893.7,1.0,3.58148,3.58083,3.33715,12.8341
24044.7,1.0,3.57397,3.57476,3.3791,12.9842
24195.7,1.0,3.56636,3.56745,3.42104,13.1339
24340.1,0.0,0.0,3.5935,3.45833,13.2668
24491.1,0.0,0.0,3.60543,3.45833,13.2668
24642.1,0.0,0.0,3.60861,3.45833,13.2668
24793.1,0.0,0.0,3.60818,3.45833,13.2668
24933.8,5.0,17.3868,3.47818,3.46356,13.285
25072.2,0.0,0.0,3.59877,3.5,13.4109
25223.2,0.0,0.0,3.60124,3.5,13.4109
25374.2,0.0,0.0,3.60048,3.5,13.4109
25525.2,0.0,0.0,3.60157,3.5,13.4109
25670,1.0,3.55084,3.55074,3.53057,13.5196
25821,1.0,3.53973,3.54184,3.57251,13.6683
25972,1.0,3.52984,3.5295,3.61445,13.8166
26123,1.0,3.52029,3.52106,3.6564,13.9645
26274,1.0,3.51095,3.50954,3.69834,14.1119
26425,1.0,3.50181,3.50118,3.74029,14.259
26570,0.0,0.0,3.54544,3.75,14.293
26721,0.0,0.0,3.54954,3.75,14.293
26872,0.0,0.0,3.54911,3.75,14.293
27023,0.0,0.0,3.55172,3.75,14.293
27151.3,0.0,0.0,3.53286,3.79167,14.4345
27302.3,0.0,0.0,3.54151,3.79167,14.4345
27453.3,0.0,0.0,3.53928,3.79167,14.4345
27604.3,0.0,0.0,3.54145,3.79167,14.4345
27749,1.0,3.49504,3.49577,3.80806,14.4919
27900,1.0,3.48242,3.48227,3.85,14.6382
28051,1.0,3.47303,3.47455,3.89195,14.784
28202,1.0,3.46459,3.46526,3.93389,14.9295
28353,1.0,3.45677,3.45546,3.97583,15.0747
28504,1.0,3.44938,3.44993,4.01778,15.2195
28648.7,0.0,0.0,3.48965,4.04167,15.3019
28799.7,0.0,0.0,3.4935,4.04167,15.3019
28950.7,0.0,0.0,3.49315,4.04167,15.3019
29101.7,0.0,0.0,3.49563,4.04167,15.3019
29229.7,0.0,0.0,3.4621,4.08333,15.4411
29380.7,0.0,0.0,3.48861,4.08333,15.4411
29531.7,0.0,0.0,3.48793,4.08333,15.4411
29682.7,0.0,0.0,3.48748,4.08333,15.4411
29826.7,1.0,3.45285,3.45359,4.08518,15.4475
29977.7,1.0,3.43511,3.43519,4.12713,15.5918
30128.7,1.0,3.42633,3.42572,4.16907,15.7357
30279.7,1.0,3.41801,3.41612,4.21102,15.8793
30430.7,1.0,3.40931,3.40869,4.25296,16.0225
30581.7,1.0,3.39967,3.4001,4.2949,16.1653
30725.9,0.0,0.0,3.43077,4.33333,16.2957
30876.9,0.0,0.0,3.44298,4.33333,16.2957
31027.9,0.0,0.0,3.44435,4.33333,16.2957
31178.9,0.0,0.0,3.44548,4.33333,16.2957
31320.9,5.0,16.5447,3.30879,4.33454,16.2997
31456,0.0,0.0,3.43063,4.375,16.4321
31607,0.0,0.0,3.43455,4.375,16.4321
31758,0.0,0.0,3.43416,4.375,16.4321
31909,0.0,0.0,3.43642,4.375,16.4321
32052.9,1.0,3.37159,3.37189,4.40357,16.5287
32203.9,1.0,3.35033,3.35053,4.44552,16.6697
32354.9,1.0,3.32715,3.32847,4.48746,16.8098
32505.9,1.0,3.30105,3.30127,4.5294,16.9488
32656.9,1.0,3.27271,3.2717,4.57135,17.0866
32807.9,1.0,3.24335,3.24498,4.61329,17.2233
32951.7,0.0,0.0,3.29725,4.625,17.2612
33102.7,0.0,0.0,3.30004,4.625,17.2612
33253.7,0.0,0.0,3.30333,4.625,17.2612
33404.7,0.0,0.0,3.30388,4.625,17.2612
33527.2,0.0,0.0,3.25973,4.66667,17.3903
33678.2,0.0,0.0,3.2738,4.66667,17.3903
33829.2,0.0,0.0,3.277,4.66667,17.3903
33980.2,0.0,0.0,3.2753,4.66667,17.3903
34124.6,1.0,3.20841,3.20905,4.67907,17.4302
34275.6,1.0,3.17282,3.17357,4.72101,17.564
34426.6,1.0,3.1424,3.14138,4.76295,17.6964
34577.6,1.0,3.1107,3.11082,4.8049,17.8275
34728.6,1.0,3.07514,3.07532,4.84684,17.9573
34879.6,1.0,3.03298,3.03348,4.88879,18.0854
35022.5,0.0,0.0,3.07443,4.91667,18.1695
35173.5,0.0,0.0,3.0826,4.91667,18.1695
35324.5,0.0,0.0,3.08312,4.91667,18.1695
35475.5,0.0,0.0,3.08556,4.91667,18.1695
35610,0.0,0.0,2.89017,4.95833,18.2867
35746.9,0.0,0.0,3.02877,4.95833,18.2867
35897.9,0.0,0.0,3.03347,4.95833,18.2867
36048.9,0.0,0.0,3.03341,4.95833,18.2867
36199.9,0.0,0.0,3.037,4.95833,18.2867
36210.0,0.0,0.0,3.03628,4.95833,18.2867

File: use_case_1_0.5E.csv
Time [s],Current [A],Power [W],Voltage [V],Capacity [Ah],Energy [Wh]
0.0,2.12495,8.75,4.11734,0.0,0.0
26.1148,2.14362,8.75,4.08256,0.0154965,0.0634734
60.1148,2.15464,8.75,4.0616,0.0358004,0.146112
94.1148,2.16151,8.75,4.04801,0.0561852,0.228751
128.115,2.16641,8.75,4.03895,0.0766245,0.31139
162.115,2.1701,8.75,4.03239,0.0971037,0.394029
196.115,2.17293,8.75,4.02655,0.117613,0.476668
230.115,2.17511,8.75,4.02162,0.138147,0.559307
264.115,2.17678,8.75,4.01814,0.158698,0.641946
298.115,2.17805,8.75,4.01675,0.179263,0.724584
332.115,2.17901,8.75,4.01608,0.199838,0.807223
366.115,2.17974,8.75,4.01426,0.220421,0.889862
400.115,2.18029,8.75,4.01319,0.241011,0.972501
434.115,2.18074,8.75,4.01274,0.261604,1.05514
468.115,2.18112,8.75,4.01294,0.282202,1.13778
502.115,2.18147,8.75,4.01235,0.302803,1.22042
536.115,2.18182,8.75,4.0115,0.323408,1.30306
570.115,2.18219,8.75,4.00932,0.344016,1.3857
604.115,2.18259,8.75,4.01058,0.364627,1.46833
638.115,2.18306,8.75,4.00723,0.385243,1.55097
672.115,2.18359,8.75,4.00711,0.405863,1.63361
706.115,2.18421,8.75,4.00563,0.426489,1.71625
740.115,2.18493,8.75,4.00464,0.447121,1.79889
774.115,2.18575,8.75,4.00408,0.46776,1.88153
808.115,2.18669,8.75,4.00144,0.488408,1.96417
842.115,2.18774,8.75,3.99885,0.509065,2.04681
876.115,2.18891,8.75,3.99696,0.529732,2.12945
910.115,2.19018,8.75,3.99483,0.550412,2.21208
944.115,2.19157,8.75,3.99363,0.571103,2.29472
978.115,2.19306,8.75,3.99091,0.591809,2.37736
1012.11,2.19464,8.75,3.98866,0.612528,2.46
1046.11,2.19632,8.75,3.98429,0.633264,2.54264
1080.11,2.19808,8.75,3.97994,0.654015,2.62528
1114.11,2.19991,8.75,3.9771,0.674784,2.70792
1148.11,2.20181,8.75,3.97335,0.69557,2.79056
1182.11,2.20378,8.75,3.97181,0.716374,2.8732
1216.11,2.20579,8.75,3.96814,0.737198,2.95583
1250.11,2.20784,8.75,3.96246,0.75804,3.03847
1284.11,2.20994,8.75,3.95836,0.778902,3.12111
1318.11,2.21206,8.75,3.95527,0.799784,3.20375
1352.11,2.21421,8.75,3.95128,0.820686,3.28639
1386.11,2.21637,8.75,3.94788,0.841608,3.36903
1420.11,2.21854,8.75,3.94396,0.862551,3.45167
1454.11,2.22072,8.75,3.94021,0.883515,3.53431
1488.11,2.22291,8.75,3.93482,0.904499,3.61695
1522.11,2.22509,8.75,3.93343,0.925504,3.69958
1556.11,2.22726,8.75,3.92863,0.946529,3.78222
1590.11,2.22943,8.75,3.92431,0.967575,3.86486
1624.11,2.23159,8.75,3.92222,0.988641,3.9475
1658.11,2.23373,8.75,3.9167,1.00973,4.03014
1692.11,2.23586,8.75,3.9138,1.03083,4.11278
1726.11,2.23797,8.75,3.90901,1.05196,4.19542
1760.11,2.24007,8.75,3.90694,1.07311,4.27806
1794.11,2.24216,8.75,3.90328,1.09427,4.3607
1828.11,2.24423,8.75,3.89931,1.11546,4.44333
1862.11,2.2463,8.75,3.89422,1.13667,4.52597
1896.11,2.24835,8.75,3.89224,1.15789,4.60861
1930.11,2.2504,8.75,3.88944,1.17914,4.69125
1964.11,2.25245,8.75,3.88403,1.2004,4.77389
1998.11,2.2545,8.75,3.88164,1.22168,4.85653
2032.11,2.25655,8.75,3.87826,1.24298,4.93917
2066.11,2.25862,8.75,3.87484,1.26431,5.02181
2100.11,2.2607,8.75,3.87035,1.28565,5.10445
2134.11,2.26279,8.75,3.86736,1.30701,5.18708
2168.11,2.2649,8.75,3.86461,1.32839,5.26972
2202.11,2.26703,8.75,3.86127,1.34979,5.35236
2236.11,2.26918,8.75,3.8563,1.37121,5.435
2270.11,2.27135,8.75,3.85328,1.39265,5.51764
2304.11,2.27356,8.75,3.8456,1.41412,5.60028
2338.11,2.27579,8.75,3.84347,1.4356,5.68292
2372.11,2.27805,8.75,3.8425,1.4571,5.76556
2406.11,2.28034,8.75,3.8372,1.47863,5.8482
2440.11,2.28267,8.75,3.83253,1.50018,5.93083
2474.11,2.28505,8.75,3.82939,1.52175,6.01347
2508.11,2.28747,8.75,3.82521,1.54334,6.09611
2542.11,2.28993,8.75,3.82201,1.56496,6.17875
2576.11,2.29246,8.75,3.81579,1.5866,6.26139
2610.11,2.29504,8.75,3.8126,1.60826,6.34403
2644.11,2.29769,8.75,3.80773,1.62995,6.42667
2678.11,2.30041,8.75,3.80306,1.65166,6.50931
2712.11,2.30321,8.75,3.79886,1.6734,6.59195
2746.11,2.30607,8.75,3.79396,1.69517,6.67458
2780.11,2.309,8.75,3.78976,1.71696,6.75722
2814.11,2.31199,8.75,3.78443,1.73878,6.83986
2848.11,2.31503,8.75,3.78035,1.76063,6.9225
2882.11,2.31808,8.75,3.77492,1.78251,7.00514
2916.11,2.32114,8.75,3.76891,1.80442,7.08778
2950.11,2.32418,8.75,3.76322,1.82636,7.17042
2984.11,2.32719,8.75,3.75995,1.84832,7.25306
3018.11,2.33015,8.75,3.75556,1.87032,7.3357
3052.11,2.33307,8.75,3.75,1.89234,7.41833
3086.11,2.33594,8.75,3.74493,1.91438,7.50097
3120.11,2.33878,8.75,3.74124,1.93646,7.58361
3154.11,2.34158,8.75,3.73785,1.95856,7.66625
3188.11,2.34436,8.75,3.73138,1.98069,7.74889
3222.11,2.34712,8.75,3.72814,2.00285,7.83153
3256.11,2.34987,8.75,3.72218,2.02503,7.91417
3290.11,2.35263,8.75,3.72073,2.04723,7.99681
3324.11,2.35539,8.75,3.71527,2.06947,8.07945
3358.11,2.35815,8.75,3.71076,2.09172,8.16208
3392.11,2.36094,8.75,3.70452,2.11401,8.24472
3426.11,2.36373,8.75,3.70087,2.13632,8.32736
3460.11,2.36654,8.75,3.69759,2.15866,8.41
3494.11,2.36937,8.75,3.69285,2.18102,8.49264
3528.11,2.3722,8.75,3.68919,2.20341,8.57528
3562.11,2.37504,8.75,3.68548,2.22583,8.65792
3596.11,2.37789,8.75,3.68079,2.24828,8.74056
3630.11,2.38073,8.75,3.67489,2.27075,8.8232
3664.11,2.38357,8.75,3.67177,2.29325,8.90583
3698.11,2.3864,8.75,3.6673,2.31577,8.98847
3732.11,2.38921,8.75,3.66375,2.33832,9.07111
3766.11,2.39201,8.75,3.65727,2.3609,9.15375
3800.11,2.39478,8.75,3.65384,2.38351,9.23639
3834.11,2.39752,8.75,3.65012,2.40614,9.31903
3868.11,2.40023,8.75,3.64521,2.42879,9.40167
3902.11,2.40291,8.75,3.64008,2.45148,9.48431
3936.11,2.40555,8.75,3.63571,2.47418,9.56695
3970.11,2.40815,8.75,3.63443,2.49691,9.64958
4004.11,2.41071,8.75,3.62929,2.51967,9.73222
4038.11,2.41323,8.75,3.62483,2.54245,9.81486
4072.11,2.41571,8.75,3.62243,2.56525,9.8975
4106.11,2.41816,8.75,3.61874,2.58808,9.98014
4140.11,2.42056,8.75,3.61626,2.61093,10.0628
4174.11,2.42293,8.75,3.6116,2.6338,10.1454
4208.11,2.42526,8.75,3.60805,2.6567,10.2281
4242.11,2.42756,8.75,3.60552,2.67961,10.3107
4276.11,2.42983,8.75,3.6012,2.70255,10.3933
4310.11,2.43208,8.75,3.59856,2.72551,10.476
4344.11,2.4343,8.75,3.59505,2.74849,10.5586
4378.11,2.4365,8.75,3.59109,2.77149,10.6413
4412.11,2.43869,8.75,3.58688,2.79452,10.7239
4446.11,2.44086,8.75,3.58357,2.81756,10.8065
4480.11,2.44303,8.75,3.5802,2.84062,10.8892
4514.11,2.44519,8.75,3.57815,2.86371,10.9718
4548.11,2.44734,8.75,3.57569,2.88681,11.0544
4582.11,2.4495,8.75,3.57382,2.90993,11.1371
4616.11,2.45166,8.75,3.5688,2.93308,11.2197
4650.11,2.45383,8.75,3.56528,2.95624,11.3024
4684.11,2.45601,8.75,3.56103,2.97943,11.385
4718.11,2.4582,8.75,3.56143,3.00264,11.4676
4752.11,2.46041,8.75,3.55431,3.02586,11.5503
4786.11,2.46264,8.75,3.55347,3.04911,11.6329
4820.11,2.46489,8.75,3.5495,3.07238,11.7156
4854.11,2.46717,8.75,3.54661,3.09567,11.7982
4888.11,2.46947,8.75,3.54291,3.11898,11.8808
4922.11,2.47181,8.75,3.54022,3.14232,11.9635
4956.11,2.47419,8.75,3.53836,3.16567,12.0461
4990.11,2.4766,8.75,3.5338,3.18905,12.1288
5024.11,2.47906,8.75,3.52932,3.21245,12.2114
5058.11,2.48157,8.75,3.52644,3.23588,12.294
5092.11,2.48413,8.75,3.52117,3.25933,12.3767
5126.11,2.48674,8.75,3.51897,3.2828,12.4593
5160.11,2.48941,8.75,3.5156,3.3063,12.5419
5194.11,2.49215,8.75001,3.51112,3.32983,12.6246
5228.11,2.49496,8.75,3.50869,3.35338,12.7072
5262.11,2.49784,8.75,3.50269,3.37695,12.7899
5296.11,2.50081,8.75,3.49984,3.40056,12.8725
5330.11,2.50385,8.75,3.49512,3.42419,12.9551
5364.11,2.50698,8.75001,3.49197,3.44785,13.0378
5398.11,2.51021,8.75,3.48561,3.47155,13.1204
5432.11,2.51352,8.75,3.48184,3.49527,13.2031
5466.11,2.51693,8.75,3.47629,3.51903,13.2857
5500.11,2.52042,8.75,3.47034,3.54281,13.3683
5534.11,2.52399,8.75001,3.4672,3.56664,13.451
5568.11,2.52765,8.75,3.46183,3.59049,13.5336
5602.11,2.53137,8.75,3.45795,3.61438,13.6163
5636.11,2.53514,8.75,3.45178,3.63831,13.6989
5670.11,2.53895,8.75,3.44738,3.66227,13.7815
5704.11,2.5428,8.75,3.43981,3.68627,13.8642
5738.11,2.54665,8.75,3.43704,3.7103,13.9468
5772.11,2.55051,8.75,3.42885,3.73437,14.0294
5806.11,2.55434,8.75,3.42529,3.75848,14.1121
5840.11,2.55815,8.75,3.41994,3.78262,14.1947
5874.11,2.56192,8.75,3.41407,3.8068,14.2774
5908.11,2.56564,8.75,3.40966,3.83101,14.36
5942.11,2.56931,8.75,3.40656,3.85526,14.4426
5976.11,2.57292,8.75,3.40164,3.87955,14.5253
6010.11,2.57648,8.75,3.39615,3.90386,14.6079
6044.11,2.57998,8.75,3.3906,3.92821,14.6906
6078.11,2.58344,8.75,3.38651,3.9526,14.7732
6112.11,2.58686,8.75,3.384,3.97701,14.8558
6146.11,2.59026,8.75,3.37687,4.00146,14.9385
6180.11,2.59365,8.75,3.37338,4.02594,15.0211
6214.11,2.59705,8.75,3.36768,4.05045,15.1038
6248.11,2.60048,8.75,3.36509,4.075,15.1864
6282.11,2.60398,8.75,3.36115,4.09957,15.269
6316.11,2.60756,8.75001,3.35602,4.12418,15.3517
6350.11,2.61128,8.75,3.35218,4.14883,15.4343
6384.11,2.61515,8.74999,3.34417,4.17351,15.5169
6418.11,2.61924,8.75,3.34034,4.19823,15.5996
6452.11,2.62359,8.74998,3.33444,4.22299,15.6822
6486.11,2.62826,8.75,3.32814,4.24779,15.7649
6520.11,2.63333,8.75,3.32489,4.27263,15.8475
6554.11,2.6389,8.75,3.31392,4.29753,15.9301
6588.11,2.64508,8.74999,3.30937,4.32248,16.0128
6622.11,2.65202,8.74999,3.30023,4.3475,16.0954
6656.11,2.65985,8.75002,3.29062,4.37258,16.1781
6690.11,2.66876,8.75001,3.28083,4.39774,16.2607
6724.11,2.67889,8.74998,3.26639,4.423,16.3433
6758.11,2.69033,8.74999,3.25285,4.44835,16.426
6792.11,2.70313,8.74999,3.23483,4.47382,16.5086
6826.11,2.7172,8.75,3.22056,4.49942,16.5913
6860.11,2.73239,8.74998,3.20512,4.52516,16.6739
6894.11,2.74845,8.75002,3.18405,4.55104,16.7565
6928.11,2.76511,8.75003,3.16415,4.57708,16.8392
6962.11,2.78213,8.74997,3.14753,4.60327,16.9218
6996.11,2.79933,8.75001,3.12444,4.62963,17.0044
7030.11,2.81669,8.74996,3.10644,4.65616,17.0871
7064.11,2.8343,8.75003,3.08733,4.68284,17.1697
7098.11,2.85244,8.75002,3.06812,4.7097,17.2524
7132.11,2.8715,8.75002,3.04714,4.73673,17.335
7166.11,2.89206,8.75,3.02645,4.76395,17.4176
7200.11,2.91483,8.74998,3.00154,4.79137,17.5003
7234.11,2.94075,8.74997,2.97663,4.81902,17.5829
7268.11,2.97101,8.74997,2.94443,4.84694,17.6656
7302.11,3.00718,8.75004,2.90806,4.87517,17.7482
7336.11,3.05144,8.75001,2.86882,4.90378,17.8308
7370.11,3.10688,8.74995,2.81633,4.93286,17.9135
7404.11,3.17817,8.74998,2.75459,4.96253,17.9961
7437.06,3.26946,8.75006,2.67631,4.99203,18.0762
7469.41,3.39179,8.75007,2.57958,5.02195,18.1548
7490.77,3.50002,8.75005,2.49999,5.04239,18.2067