Folder: battery-digital-twin-from-scratch/output (part 3)

File: use_case_2_0.5E.csv
Time [s],Current [A],Power [W],Voltage [V],Capacity [Ah],Energy [Wh]
0.0,0.0,0.0,4.09521,0.0,0.0
0.12,0.0,0.0,4.09497,0.0,0.0
0.48,0.0,0.0,4.09629,0.0,0.0
1.92,0.0,0.0,4.09627,0.0,0.0
3.92,0.0,0.0,4.09588,0.0,0.0
5.92,0.0,0.0,4.09728,0.0,0.0
7.92,0.0,0.0,4.09553,0.0,0.0
9.92,0.0,0.0,4.09687,0.0,0.0
11.92,0.0,0.0,4.09613,0.0,0.0
13.92,0.0,0.0,4.09532,0.0,0.0
15.92,0.0,0.0,4.09669,0.0,0.0
17.92,0.0,0.0,4.09688,0.0,0.0
19.92,0.0,0.0,4.09764,0.0,0.0
21.92,0.0,0.0,4.09666,0.0,0.0
23.92,0.0,0.0,4.09746,0.0,0.0
25.92,0.0,0.0,4.09761,0.0,0.0
27.92,0.0,0.0,4.09686,0.0,0.0
29.92,0.0,0.0,4.09502,0.0,0.0
31.92,0.0,0.0,4.09706,0.0,0.0
33.92,0.0,0.0,4.09619,0.0,0.0
35.92,0.0,0.0,4.09743,0.0,0.0
37.92,0.0,0.0,4.09582,0.0,0.0
39.92,0.0,0.0,4.09675,0.0,0.0
41.92,0.0,0.0,4.09663,0.0,0.0
43.92,0.0,0.0,4.09671,0.0,0.0
45.92,0.0,0.0,4.09527,0.0,0.0
47.92,0.0,0.0,4.0978,0.0,0.0
49.92,0.0,0.0,4.09723,0.0,0.0
51.92,0.0,0.0,4.09791,0.0,0.0
53.92,0.0,0.0,4.09585,0.0,0.0
55.92,0.0,0.0,4.09508,0.0,0.0
57.92,0.0,0.0,4.09515,0.0,0.0
59.92,0.0,0.0,4.09764,0.0,0.0
60,2.17351,8.75,4.02473,4.28992e-18,1.72701e-17
60.02,2.17352,8.75,4.02479,1.20751e-05,4.86111e-05
60.08,2.17354,8.75,4.02418,4.83006e-05,0.000194444
60.32,2.17361,8.75,4.02636,0.000193207,0.000777778
60.96,2.1738,8.75,4.02565,0.000579651,0.00233333
61.92,2.17407,8.75,4.02418,0.00115939,0.00466667
63.56,2.1745,8.75,4.02386,0.00214995,0.00865278
65.56,2.17499,8.75,4.02294,0.00335821,0.0135139
67.56,2.17543,8.75,4.02188,0.00456672,0.018375
69.56,2.17585,8.75,4.02147,0.00577547,0.0232361
70,0.0,0.0,4.09126,0.00604142,0.0243056
70.0664,0.0,0.0,4.09006,0.00604142,0.0243056
70.2438,0.0,0.0,4.09121,0.00604142,0.0243056
70.5988,0.0,0.0,4.08925,0.00604142,0.0243056
71.0721,0.0,0.0,4.09319,0.00604142,0.0243056
72.0187,0.0,0.0,4.09065,0.00604142,0.0243056
73.8171,0.0,0.0,4.09188,0.00604142,0.0243056
75.521,0.0,0.0,4.09109,0.00604142,0.0243056
77.3729,0.0,0.0,4.09396,0.00604142,0.0243056
79.3729,0.0,0.0,4.09264,0.00604142,0.0243056
81.3729,0.0,0.0,4.09372,0.00604142,0.0243056
83.3729,0.0,0.0,4.09219,0.00604142,0.0243056
85.3729,0.0,0.0,4.09349,0.00604142,0.0243056
87.3729,0.0,0.0,4.09394,0.00604142,0.0243056
89.3729,0.0,0.0,4.09428,0.00604142,0.0243056
91.3729,0.0,0.0,4.09304,0.00604142,0.0243056
93.3729,0.0,0.0,4.09542,0.00604142,0.0243056
95.3729,0.0,0.0,4.09469,0.00604142,0.0243056
97.3729,0.0,0.0,4.09429,0.00604142,0.0243056
99.3729,0.0,0.0,4.09548,0.00604142,0.0243056
101.373,0.0,0.0,4.09375,0.00604142,0.0243056
103.373,0.0,0.0,4.09627,0.00604142,0.0243056
105.373,0.0,0.0,4.09599,0.00604142,0.0243056
107.373,0.0,0.0,4.0934,0.00604142,0.0243056
109.373,0.0,0.0,4.09428,0.00604142,0.0243056
111.373,0.0,0.0,4.09388,0.00604142,0.0243056
113.373,0.0,0.0,4.09529,0.00604142,0.0243056
115.373,0.0,0.0,4.09509,0.00604142,0.0243056
117.373,0.0,0.0,4.09405,0.00604142,0.0243056
119.373,0.0,0.0,4.0963,0.00604142,0.0243056
121.373,0.0,0.0,4.09472,0.00604142,0.0243056
123.373,0.0,0.0,4.095,0.00604142,0.0243056
125.373,0.0,0.0,4.09535,0.00604142,0.0243056
127.373,0.0,0.0,4.09603,0.00604142,0.0243056
129.373,0.0,0.0,4.09801,0.00604142,0.0243056
131.373,0.0,0.0,4.09489,0.00604142,0.0243056
133.373,0.0,0.0,4.0969,0.00604142,0.0243056
135.373,0.0,0.0,4.09759,0.00604142,0.0243056
137.373,0.0,0.0,4.09506,0.00604142,0.0243056
139.373,0.0,0.0,4.09634,0.00604142,0.0243056
141.373,0.0,0.0,4.09584,0.00604142,0.0243056
143.373,0.0,0.0,4.09655,0.00604142,0.0243056
145.373,0.0,0.0,4.09753,0.00604142,0.0243056
147.373,0.0,0.0,4.0953,0.00604142,0.0243056
149.373,0.0,0.0,4.09531,0.00604142,0.0243056
151.373,0.0,0.0,4.09597,0.00604142,0.0243056
153.373,0.0,0.0,4.0962,0.00604142,0.0243056
155.373,0.0,0.0,4.09656,0.00604142,0.0243056
157.373,0.0,0.0,4.09518,0.00604142,0.0243056
159.373,0.0,0.0,4.09689,0.00604142,0.0243056
161.373,0.0,0.0,4.09714,0.00604142,0.0243056
163.373,0.0,0.0,4.09572,0.00604142,0.0243056
165.373,0.0,0.0,4.09459,0.00604142,0.0243056
167.373,0.0,0.0,4.0985,0.00604142,0.0243056
169.373,0.0,0.0,4.09732,0.00604142,0.0243056
171.373,0.0,0.0,4.09551,0.00604142,0.0243056
173.373,0.0,0.0,4.09638,0.00604142,0.0243056
175.373,0.0,0.0,4.09576,0.00604142,0.0243056
177.373,0.0,0.0,4.09417,0.00604142,0.0243056
179.373,0.0,0.0,4.09525,0.00604142,0.0243056
181.373,0.0,0.0,4.09601,0.00604142,0.0243056
183.373,0.0,0.0,4.09567,0.00604142,0.0243056
185.373,0.0,0.0,4.09526,0.00604142,0.0243056
187.373,0.0,0.0,4.09494,0.00604142,0.0243056
189.373,0.0,0.0,4.0952,0.00604142,0.0243056
191.373,0.0,0.0,4.09709,0.00604142,0.0243056
193.373,0.0,0.0,4.09638,0.00604142,0.0243056
195.373,0.0,0.0,4.09602,0.00604142,0.0243056
197.373,0.0,0.0,4.09813,0.00604142,0.0243056
199.373,0.0,0.0,4.097,0.00604142,0.0243056
201.373,0.0,0.0,4.0948,0.00604142,0.0243056
203.373,0.0,0.0,4.09649,0.00604142,0.0243056
205.373,0.0,0.0,4.09782,0.00604142,0.0243056
207.373,0.0,0.0,4.09652,0.00604142,0.0243056
209.373,0.0,0.0,4.09591,0.00604142,0.0243056
211.373,0.0,0.0,4.09704,0.00604142,0.0243056
213.373,0.0,0.0,4.09618,0.00604142,0.0243056
215.373,0.0,0.0,4.09637,0.00604142,0.0243056
217.373,0.0,0.0,4.09674,0.00604142,0.0243056
219.373,0.0,0.0,4.09596,0.00604142,0.0243056
221.373,0.0,0.0,4.09596,0.00604142,0.0243056
223.373,0.0,0.0,4.09779,0.00604142,0.0243056
225.373,0.0,0.0,4.09579,0.00604142,0.0243056
227.373,0.0,0.0,4.09575,0.00604142,0.0243056
229.373,0.0,0.0,4.09678,0.00604142,0.0243056
231.373,0.0,0.0,4.09655,0.00604142,0.0243056
233.373,0.0,0.0,4.09656,0.00604142,0.0243056
235.373,0.0,0.0,4.09644,0.00604142,0.0243056
237.373,0.0,0.0,4.09482,0.00604142,0.0243056
239.373,0.0,0.0,4.09649,0.00604142,0.0243056
241.373,0.0,0.0,4.09789,0.00604142,0.0243056
243.373,0.0,0.0,4.09624,0.00604142,0.0243056
245.373,0.0,0.0,4.09601,0.00604142,0.0243056
247.373,0.0,0.0,4.09732,0.00604142,0.0243056
249.373,0.0,0.0,4.0969,0.00604142,0.0243056
251.373,0.0,0.0,4.09669,0.00604142,0.0243056
253.373,0.0,0.0,4.09687,0.00604142,0.0243056
255.373,0.0,0.0,4.09647,0.00604142,0.0243056
257.373,0.0,0.0,4.09711,0.00604142,0.0243056
259.373,0.0,0.0,4.09525,0.00604142,0.0243056
261.373,0.0,0.0,4.0951,0.00604142,0.0243056
263.373,0.0,0.0,4.09587,0.00604142,0.0243056
265.373,0.0,0.0,4.0984,0.00604142,0.0243056
267.373,0.0,0.0,4.09362,0.00604142,0.0243056
269.373,0.0,0.0,4.09502,0.00604142,0.0243056
271.373,0.0,0.0,4.09717,0.00604142,0.0243056
273.373,0.0,0.0,4.09663,0.00604142,0.0243056
275.373,0.0,0.0,4.09608,0.00604142,0.0243056
277.373,0.0,0.0,4.09608,0.00604142,0.0243056
279.373,0.0,0.0,4.0969,0.00604142,0.0243056
281.373,0.0,0.0,4.09672,0.00604142,0.0243056
283.373,0.0,0.0,4.09603,0.00604142,0.0243056
285.373,0.0,0.0,4.0955,0.00604142,0.0243056
287.373,0.0,0.0,4.09583,0.00604142,0.0243056
289.373,0.0,0.0,4.0959,0.00604142,0.0243056
291.373,0.0,0.0,4.09643,0.00604142,0.0243056
293.373,0.0,0.0,4.09501,0.00604142,0.0243056
295.373,0.0,0.0,4.0959,0.00604142,0.0243056
297.373,0.0,0.0,4.09914,0.00604142,0.0243056
299.373,0.0,0.0,4.0971,0.00604142,0.0243056
301.373,0.0,0.0,4.0964,0.00604142,0.0243056
303.373,0.0,0.0,4.09537,0.00604142,0.0243056
305.373,0.0,0.0,4.0972,0.00604142,0.0243056
307.373,0.0,0.0,4.09551,0.00604142,0.0243056
309.373,0.0,0.0,4.09645,0.00604142,0.0243056
311.373,0.0,0.0,4.09538,0.00604142,0.0243056
313.373,0.0,0.0,4.09647,0.00604142,0.0243056
315.373,0.0,0.0,4.09661,0.00604142,0.0243056
317.373,0.0,0.0,4.09626,0.00604142,0.0243056
319.373,0.0,0.0,4.09648,0.00604142,0.0243056
321.373,0.0,0.0,4.09689,0.00604142,0.0243056
323.373,0.0,0.0,4.09822,0.00604142,0.0243056
325.373,0.0,0.0,4.09697,0.00604142,0.0243056
327.373,0.0,0.0,4.09678,0.00604142,0.0243056
329.373,0.0,0.0,4.09465,0.00604142,0.0243056
331.373,0.0,0.0,4.09395,0.00604142,0.0243056
333.373,0.0,0.0,4.09686,0.00604142,0.0243056
335.373,0.0,0.0,4.09707,0.00604142,0.0243056
337.373,0.0,0.0,4.09652,0.00604142,0.0243056
339.373,0.0,0.0,4.09495,0.00604142,0.0243056
341.373,0.0,0.0,4.09435,0.00604142,0.0243056
343.373,0.0,0.0,4.09721,0.00604142,0.0243056
345.373,0.0,0.0,4.09643,0.00604142,0.0243056
347.373,0.0,0.0,4.0964,0.00604142,0.0243056
349.373,0.0,0.0,4.09489,0.00604142,0.0243056
351.373,0.0,0.0,4.09692,0.00604142,0.0243056
353.373,0.0,0.0,4.09821,0.00604142,0.0243056
355.373,0.0,0.0,4.09713,0.00604142,0.0243056
357.373,0.0,0.0,4.09595,0.00604142,0.0243056
359.373,0.0,0.0,4.09698,0.00604142,0.0243056
361.373,0.0,0.0,4.09669,0.00604142,0.0243056
363.373,0.0,0.0,4.09667,0.00604142,0.0243056
365.373,0.0,0.0,4.09655,0.00604142,0.0243056
367.373,0.0,0.0,4.09702,0.00604142,0.0243056
369.373,0.0,0.0,4.09559,0.00604142,0.0243056
370.0,0.0,0.0,4.09601,0.00604142,0.0243056

File: use_case_2_1.0E.csv
Time [s],Current [A],Power [W],Voltage [V],Capacity [Ah],Energy [Wh]
0.0,0.0,0.0,4.09698,0.0,0.0
0.12,0.0,0.0,4.09676,0.0,0.0
0.48,0.0,0.0,4.09548,0.0,0.0
1.92,0.0,0.0,4.09629,0.0,0.0
3.92,0.0,0.0,4.09723,0.0,0.0
5.92,0.0,0.0,4.09894,0.0,0.0
7.92,0.0,0.0,4.09613,0.0,0.0
9.92,0.0,0.0,4.09645,0.0,0.0
11.92,0.0,0.0,4.09703,0.0,0.0
13.92,0.0,0.0,4.09619,0.0,0.0
15.92,0.0,0.0,4.09853,0.0,0.0
17.92,0.0,0.0,4.09746,0.0,0.0
19.92,0.0,0.0,4.09712,0.0,0.0
21.92,0.0,0.0,4.09607,0.0,0.0
23.92,0.0,0.0,4.09522,0.0,0.0
25.92,0.0,0.0,4.09469,0.0,0.0
27.92,0.0,0.0,4.0978,0.0,0.0
29.92,0.0,0.0,4.09794,0.0,0.0
31.92,0.0,0.0,4.10004,0.0,0.0
33.92,0.0,0.0,4.09614,0.0,0.0
35.92,0.0,0.0,4.09556,0.0,0.0
37.92,0.0,0.0,4.0973,0.0,0.0
39.92,0.0,0.0,4.0961,0.0,0.0
41.92,0.0,0.0,4.09697,0.0,0.0
43.92,0.0,0.0,4.09488,0.0,0.0
45.92,0.0,0.0,4.09719,0.0,0.0
47.92,0.0,0.0,4.09737,0.0,0.0
49.92,0.0,0.0,4.09813,0.0,0.0
51.92,0.0,0.0,4.09591,0.0,0.0
53.92,0.0,0.0,4.09661,0.0,0.0
55.92,0.0,0.0,4.09515,0.0,0.0
57.92,0.0,0.0,4.09625,0.0,0.0
59.92,0.0,0.0,4.09657,0.0,0.0
60,4.4002,17.5,3.97731,8.6848e-18,3.45403e-17
60.016,4.40022,17.5,3.97853,1.95145e-05,7.76107e-05
60.0639,4.40027,17.5,3.97764,7.80586e-05,0.000310443
60.2555,4.4005,17.5,3.97641,0.000312245,0.00124177
60.6386,4.40095,17.5,3.97691,0.000780661,0.00310443
61.1495,4.40154,17.5,3.97501,0.00140529,0.00558797
62.1713,4.40267,17.5,3.97405,0.00265484,0.0105551
64.1713,4.40476,17.5,3.97301,0.00510164,0.0202773
66.1713,4.4067,17.5,3.97229,0.00754954,0.0299995
68.1713,4.40854,17.5,3.96799,0.00999848,0.0397217
70.0,4.41014,17.5,3.96819,0.0122385,0.0486111
70.0197,0.0,0.0,4.08496,0.0122385,0.0486111
70.0702,0.0,0.0,4.08508,0.0122385,0.0486111
70.2048,0.0,0.0,4.08581,0.0122385,0.0486111
70.4741,0.0,0.0,4.08623,0.0122385,0.0486111
70.878,0.0,0.0,4.08406,0.0122385,0.0486111
71.6859,0.0,0.0,4.08531,0.0122385,0.0486111
72.6554,0.0,0.0,4.08652,0.0122385,0.0486111
73.6248,0.0,0.0,4.0879,0.0122385,0.0486111
75.5638,0.0,0.0,4.08892,0.0122385,0.0486111
77.5638,0.0,0.0,4.08799,0.0122385,0.0486111
79.5638,0.0,0.0,4.08983,0.0122385,0.0486111
81.5638,0.0,0.0,4.08923,0.0122385,0.0486111
83.5638,0.0,0.0,4.09041,0.0122385,0.0486111
85.5638,0.0,0.0,4.09071,0.0122385,0.0486111
87.5638,0.0,0.0,4.09022,0.0122385,0.0486111
89.5638,0.0,0.0,4.09239,0.0122385,0.0486111
91.5638,0.0,0.0,4.08901,0.0122385,0.0486111
93.5638,0.0,0.0,4.09116,0.0122385,0.0486111
95.5638,0.0,0.0,4.09054,0.0122385,0.0486111
97.5638,0.0,0.0,4.09196,0.0122385,0.0486111
99.5638,0.0,0.0,4.0934,0.0122385,0.0486111
101.564,0.0,0.0,4.09224,0.0122385,0.0486111
103.564,0.0,0.0,4.0925,0.0122385,0.0486111
105.564,0.0,0.0,4.09199,0.0122385,0.0486111
107.564,0.0,0.0,4.09302,0.0122385,0.0486111
109.564,0.0,0.0,4.09433,0.0122385,0.0486111
111.564,0.0,0.0,4.09273,0.0122385,0.0486111
113.564,0.0,0.0,4.09627,0.0122385,0.0486111
115.564,0.0,0.0,4.09264,0.0122385,0.0486111
117.564,0.0,0.0,4.09054,0.0122385,0.0486111
119.564,0.0,0.0,4.09282,0.0122385,0.0486111
121.564,0.0,0.0,4.09299,0.0122385,0.0486111
123.564,0.0,0.0,4.09472,0.0122385,0.0486111
125.564,0.0,0.0,4.09462,0.0122385,0.0486111
127.564,0.0,0.0,4.0954,0.0122385,0.0486111
129.564,0.0,0.0,4.0945,0.0122385,0.0486111
131.564,0.0,0.0,4.09375,0.0122385,0.0486111
133.564,0.0,0.0,4.09681,0.0122385,0.0486111
135.564,0.0,0.0,4.09608,0.0122385,0.0486111
137.564,0.0,0.0,4.09593,0.0122385,0.0486111
139.564,0.0,0.0,4.09574,0.0122385,0.0486111
141.564,0.0,0.0,4.09406,0.0122385,0.0486111
143.564,0.0,0.0,4.09374,0.0122385,0.0486111
145.564,0.0,0.0,4.09585,0.0122385,0.0486111
147.564,0.0,0.0,4.09528,0.0122385,0.0486111
149.564,0.0,0.0,4.09517,0.0122385,0.0486111
151.564,0.0,0.0,4.09495,0.0122385,0.0486111
153.564,0.0,0.0,4.0942,0.0122385,0.0486111
155.564,0.0,0.0,4.09608,0.0122385,0.0486111
157.564,0.0,0.0,4.09673,0.0122385,0.0486111
159.564,0.0,0.0,4.09612,0.0122385,0.0486111
161.564,0.0,0.0,4.09344,0.0122385,0.0486111
163.564,0.0,0.0,4.09548,0.0122385,0.0486111
165.564,0.0,0.0,4.09513,0.0122385,0.0486111
167.564,0.0,0.0,4.0955,0.0122385,0.0486111
169.564,0.0,0.0,4.09593,0.0122385,0.0486111
171.564,0.0,0.0,4.09434,0.0122385,0.0486111
173.564,0.0,0.0,4.09315,0.0122385,0.0486111
175.564,0.0,0.0,4.09471,0.0122385,0.0486111
177.564,0.0,0.0,4.09551,0.0122385,0.0486111
179.564,0.0,0.0,4.09336,0.0122385,0.0486111
181.564,0.0,0.0,4.09583,0.0122385,0.0486111
183.564,0.0,0.0,4.09633,0.0122385,0.0486111
185.564,0.0,0.0,4.09595,0.0122385,0.0486111
187.564,0.0,0.0,4.09607,0.0122385,0.0486111
189.564,0.0,0.0,4.09688,0.0122385,0.0486111
191.564,0.0,0.0,4.09427,0.0122385,0.0486111
193.564,0.0,0.0,4.09723,0.0122385,0.0486111
195.564,0.0,0.0,4.09581,0.0122385,0.0486111
197.564,0.0,0.0,4.09634,0.0122385,0.0486111
199.564,0.0,0.0,4.09683,0.0122385,0.0486111
201.564,0.0,0.0,4.09473,0.0122385,0.0486111
203.564,0.0,0.0,4.09494,0.0122385,0.0486111
205.564,0.0,0.0,4.09464,0.0122385,0.0486111
207.564,0.0,0.0,4.09471,0.0122385,0.0486111
209.564,0.0,0.0,4.09494,0.0122385,0.0486111
211.564,0.0,0.0,4.09527,0.0122385,0.0486111
213.564,0.0,0.0,4.09681,0.0122385,0.0486111
215.564,0.0,0.0,4.09766,0.0122385,0.0486111
217.564,0.0,0.0,4.09349,0.0122385,0.0486111
219.564,0.0,0.0,4.09551,0.0122385,0.0486111
221.564,0.0,0.0,4.09432,0.0122385,0.0486111
223.564,0.0,0.0,4.09298,0.0122385,0.0486111
225.564,0.0,0.0,4.09511,0.0122385,0.0486111
227.564,0.0,0.0,4.09504,0.0122385,0.0486111
229.564,0.0,0.0,4.09556,0.0122385,0.0486111
231.564,0.0,0.0,4.09542,0.0122385,0.0486111
233.564,0.0,0.0,4.0958,0.0122385,0.0486111
235.564,0.0,0.0,4.09407,0.0122385,0.0486111
237.564,0.0,0.0,4.09707,0.0122385,0.0486111
239.564,0.0,0.0,4.09765,0.0122385,0.0486111
241.564,0.0,0.0,4.09564,0.0122385,0.0486111
243.564,0.0,0.0,4.09486,0.0122385,0.0486111
245.564,0.0,0.0,4.09478,0.0122385,0.0486111
247.564,0.0,0.0,4.09535,0.0122385,0.0486111
249.564,0.0,0.0,4.09724,0.0122385,0.0486111
251.564,0.0,0.0,4.09752,0.0122385,0.0486111
253.564,0.0,0.0,4.09617,0.0122385,0.0486111
255.564,0.0,0.0,4.09679,0.0122385,0.0486111
257.564,0.0,0.0,4.09549,0.0122385,0.0486111
259.564,0.0,0.0,4.09566,0.0122385,0.0486111
261.564,0.0,0.0,4.09446,0.0122385,0.0486111
263.564,0.0,0.0,4.09499,0.0122385,0.0486111
265.564,0.0,0.0,4.09664,0.0122385,0.0486111
267.564,0.0,0.0,4.0944,0.0122385,0.0486111
269.564,0.0,0.0,4.0961,0.0122385,0.0486111
271.564,0.0,0.0,4.09452,0.0122385,0.0486111
273.564,0.0,0.0,4.09561,0.0122385,0.0486111
275.564,0.0,0.0,4.09589,0.0122385,0.0486111
277.564,0.0,0.0,4.09541,0.0122385,0.0486111
279.564,0.0,0.0,4.09676,0.0122385,0.0486111
281.564,0.0,0.0,4.09519,0.0122385,0.0486111
283.564,0.0,0.0,4.09643,0.0122385,0.0486111
285.564,0.0,0.0,4.0959,0.0122385,0.0486111
287.564,0.0,0.0,4.09683,0.0122385,0.0486111
289.564,0.0,0.0,4.09575,0.0122385,0.0486111
291.564,0.0,0.0,4.09466,0.0122385,0.0486111
293.564,0.0,0.0,4.09469,0.0122385,0.0486111
295.564,0.0,0.0,4.09603,0.0122385,0.0486111
297.564,0.0,0.0,4.09561,0.0122385,0.0486111
299.564,0.0,0.0,4.09521,0.0122385,0.0486111
301.564,0.0,0.0,4.09605,0.0122385,0.0486111
303.564,0.0,0.0,4.09609,0.0122385,0.0486111
305.564,0.0,0.0,4.0973,0.0122385,0.0486111
307.564,0.0,0.0,4.09581,0.0122385,0.0486111
309.564,0.0,0.0,4.09683,0.0122385,0.0486111
311.564,0.0,0.0,4.09649,0.0122385,0.0486111
313.564,0.0,0.0,4.09559,0.0122385,0.0486111
315.564,0.0,0.0,4.09608,0.0122385,0.0486111
317.564,0.0,0.0,4.09744,0.0122385,0.0486111
319.564,0.0,0.0,4.09434,0.0122385,0.0486111
321.564,0.0,0.0,4.09533,0.0122385,0.0486111
323.564,0.0,0.0,4.09586,0.0122385,0.0486111
325.564,0.0,0.0,4.09573,0.0122385,0.0486111
327.564,0.0,0.0,4.09433,0.0122385,0.0486111
329.564,0.0,0.0,4.09635,0.0122385,0.0486111
331.564,0.0,0.0,4.09489,0.0122385,0.0486111
333.564,0.0,0.0,4.09594,0.0122385,0.0486111
335.564,0.0,0.0,4.0962,0.0122385,0.0486111
337.564,0.0,0.0,4.09654,0.0122385,0.0486111
339.564,0.0,0.0,4.09645,0.0122385,0.0486111
341.564,0.0,0.0,4.09637,0.0122385,0.0486111
343.564,0.0,0.0,4.09731,0.0122385,0.0486111
345.564,0.0,0.0,4.09547,0.0122385,0.0486111
347.564,0.0,0.0,4.09592,0.0122385,0.0486111
349.564,0.0,0.0,4.09721,0.0122385,0.0486111
351.564,0.0,0.0,4.09523,0.0122385,0.0486111
353.564,0.0,0.0,4.09516,0.0122385,0.0486111
355.564,0.0,0.0,4.09813,0.0122385,0.0486111
357.564,0.0,0.0,4.09476,0.0122385,0.0486111
359.564,0.0,0.0,4.09719,0.0122385,0.0486111
361.564,0.0,0.0,4.09475,0.0122385,0.0486111
363.564,0.0,0.0,4.09885,0.0122385,0.0486111
365.564,0.0,0.0,4.0973,0.0122385,0.0486111
367.564,0.0,0.0,4.09599,0.0122385,0.0486111
369.564,0.0,0.0,4.09605,0.0122385,0.0486111
370.0,0.0,0.0,4.0966,0.0122385,0.0486111

File: use_case_2_2.0E.csv
Time [s],Current [A],Power [W],Voltage [V],Capacity [Ah],Energy [Wh]
0.0,0.0,0.0,4.09697,0.0,0.0
0.12,0.0,0.0,4.09623,0.0,0.0
0.48,0.0,0.0,4.09581,0.0,0.0
1.92,0.0,0.0,4.0961,0.0,0.0
3.92,0.0,0.0,4.09587,0.0,0.0
5.92,0.0,0.0,4.0958,0.0,0.0
7.92,0.0,0.0,4.09786,0.0,0.0
9.92,0.0,0.0,4.09667,0.0,0.0
11.92,0.0,0.0,4.09762,0.0,0.0
13.92,0.0,0.0,4.09798,0.0,0.0
15.92,0.0,0.0,4.09704,0.0,0.0
17.92,0.0,0.0,4.09644,0.0,0.0
19.92,0.0,0.0,4.09861,0.0,0.0
21.92,0.0,0.0,4.09745,0.0,0.0
23.92,0.0,0.0,4.09577,0.0,0.0
25.92,0.0,0.0,4.09731,0.0,0.0
27.92,0.0,0.0,4.09626,0.0,0.0
29.92,0.0,0.0,4.09734,0.0,0.0
31.92,0.0,0.0,4.09592,0.0,0.0
33.92,0.0,0.0,4.09783,0.0,0.0
35.92,0.0,0.0,4.09672,0.0,0.0
37.92,0.0,0.0,4.09747,0.0,0.0
39.92,0.0,0.0,4.09703,0.0,0.0
41.92,0.0,0.0,4.09676,0.0,0.0
43.92,0.0,0.0,4.09639,0.0,0.0
45.92,0.0,0.0,4.09632,0.0,0.0
47.92,0.0,0.0,4.09483,0.0,0.0
49.92,0.0,0.0,4.09526,0.0,0.0
51.92,0.0,0.0,4.09472,0.0,0.0
53.92,0.0,0.0,4.09769,0.0,0.0
55.92,0.0,0.0,4.09775,0.0,0.0
57.92,0.0,0.0,4.09582,0.0,0.0
59.92,0.0,0.0,4.09659,0.0,0.0
60,8.95855,35.01,3.90762,1.76818e-17,6.91003e-17
60.0078,8.95859,35.01,3.90805,1.9488e-05,7.61589e-05
60.0313,8.95872,35.01,3.90636,7.79528e-05,0.000304636
60.1253,8.95921,35.01,3.90718,0.000311823,0.00121854
60.3132,8.96018,35.01,3.90597,0.000779607,0.00304636
60.5638,8.96145,35.01,3.90571,0.0014034,0.00548344
61.065,8.96396,35.01,3.90555,0.0026513,0.0103576
62.0674,8.96884,35.01,3.9023,0.00514828,0.0201059
63.0698,8.97367,35.01,3.9022,0.00764661,0.0298543
64.0722,8.97849,35.01,3.89912,0.0101463,0.0396026
66.0722,8.98829,35.01,3.89536,0.0151384,0.0590526
68.0722,8.99839,35.01,3.8908,0.0201361,0.0785026
70.0,9.00839,35.01,3.88439,0.0249586,0.09725
70.0147,0.0,0.0,4.07108,0.0249586,0.09725
70.0589,0.0,0.0,4.07038,0.0249586,0.09725
70.1767,0.0,0.0,4.07088,0.0249586,0.09725
70.2945,0.0,0.0,4.06957,0.0249586,0.09725
70.53,0.0,0.0,4.07243,0.0249586,0.09725
70.8834,0.0,0.0,4.07133,0.0249586,0.09725
71.5901,0.0,0.0,4.07275,0.0249586,0.09725
72.4152,0.0,0.0,4.07454,0.0249586,0.09725
73.2403,0.0,0.0,4.07643,0.0249586,0.09725
74.0655,0.0,0.0,4.07819,0.0249586,0.09725
75.7158,0.0,0.0,4.0782,0.0249586,0.09725
77.3661,0.0,0.0,4.08053,0.0249586,0.09725
79.0163,0.0,0.0,4.07963,0.0249586,0.09725
80.6666,0.0,0.0,4.08003,0.0249586,0.09725
82.3169,0.0,0.0,4.08142,0.0249586,0.09725
84.3169,0.0,0.0,4.08349,0.0249586,0.09725
86.3169,0.0,0.0,4.08489,0.0249586,0.09725
88.3169,0.0,0.0,4.08317,0.0249586,0.09725
90.3169,0.0,0.0,4.08464,0.0249586,0.09725
92.3169,0.0,0.0,4.0853,0.0249586,0.09725
94.3169,0.0,0.0,4.08596,0.0249586,0.09725
96.3169,0.0,0.0,4.08716,0.0249586,0.09725
98.3169,0.0,0.0,4.08784,0.0249586,0.09725
100.317,0.0,0.0,4.08858,0.0249586,0.09725
102.317,0.0,0.0,4.08691,0.0249586,0.09725
104.317,0.0,0.0,4.09063,0.0249586,0.09725
106.317,0.0,0.0,4.09049,0.0249586,0.09725
108.317,0.0,0.0,4.08923,0.0249586,0.09725
110.317,0.0,0.0,4.09039,0.0249586,0.09725
112.317,0.0,0.0,4.09093,0.0249586,0.09725
114.317,0.0,0.0,4.09063,0.0249586,0.09725
116.317,0.0,0.0,4.09054,0.0249586,0.09725
118.317,0.0,0.0,4.08957,0.0249586,0.09725
120.317,0.0,0.0,4.09378,0.0249586,0.09725
122.317,0.0,0.0,4.09124,0.0249586,0.09725
124.317,0.0,0.0,4.0931,0.0249586,0.09725
126.317,0.0,0.0,4.0918,0.0249586,0.09725
128.317,0.0,0.0,4.09253,0.0249586,0.09725
130.317,0.0,0.0,4.09137,0.0249586,0.09725
132.317,0.0,0.0,4.09286,0.0249586,0.09725
134.317,0.0,0.0,4.09336,0.0249586,0.09725
136.317,0.0,0.0,4.09115,0.0249586,0.09725
138.317,0.0,0.0,4.09568,0.0249586,0.09725
140.317,0.0,0.0,4.09336,0.0249586,0.09725
142.317,0.0,0.0,4.09486,0.0249586,0.09725
144.317,0.0,0.0,4.09238,0.0249586,0.09725
146.317,0.0,0.0,4.09387,0.0249586,0.09725
148.317,0.0,0.0,4.0926,0.0249586,0.09725
150.317,0.0,0.0,4.09357,0.0249586,0.09725
152.317,0.0,0.0,4.09237,0.0249586,0.09725
154.317,0.0,0.0,4.09278,0.0249586,0.09725
156.317,0.0,0.0,4.09339,0.0249586,0.09725
158.317,0.0,0.0,4.09385,0.0249586,0.09725
160.317,0.0,0.0,4.0926,0.0249586,0.09725
162.317,0.0,0.0,4.09469,0.0249586,0.09725
164.317,0.0,0.0,4.09358,0.0249586,0.09725
166.317,0.0,0.0,4.09187,0.0249586,0.09725
168.317,0.0,0.0,4.09224,0.0249586,0.09725
170.317,0.0,0.0,4.09534,0.0249586,0.09725
172.317,0.0,0.0,4.09375,0.0249586,0.09725
174.317,0.0,0.0,4.09349,0.0249586,0.09725
176.317,0.0,0.0,4.09285,0.0249586,0.09725
178.317,0.0,0.0,4.09562,0.0249586,0.09725
180.317,0.0,0.0,4.09332,0.0249586,0.09725
182.317,0.0,0.0,4.09364,0.0249586,0.09725
184.317,0.0,0.0,4.09481,0.0249586,0.09725
186.317,0.0,0.0,4.09452,0.0249586,0.09725
188.317,0.0,0.0,4.09526,0.0249586,0.09725
190.317,0.0,0.0,4.09659,0.0249586,0.09725
192.317,0.0,0.0,4.09257,0.0249586,0.09725
194.317,0.0,0.0,4.09474,0.0249586,0.09725
196.317,0.0,0.0,4.09314,0.0249586,0.09725
198.317,0.0,0.0,4.09293,0.0249586,0.09725
200.317,0.0,0.0,4.09329,0.0249586,0.09725
202.317,0.0,0.0,4.09359,0.0249586,0.09725
204.317,0.0,0.0,4.0936,0.0249586,0.09725
206.317,0.0,0.0,4.09329,0.0249586,0.09725
208.317,0.0,0.0,4.09428,0.0249586,0.09725
210.317,0.0,0.0,4.09617,0.0249586,0.09725
212.317,0.0,0.0,4.09455,0.0249586,0.09725
214.317,0.0,0.0,4.09406,0.0249586,0.09725
216.317,0.0,0.0,4.09459,0.0249586,0.09725
218.317,0.0,0.0,4.09426,0.0249586,0.09725
220.317,0.0,0.0,4.09375,0.0249586,0.09725
222.317,0.0,0.0,4.09526,0.0249586,0.09725
224.317,0.0,0.0,4.09459,0.0249586,0.09725
226.317,0.0,0.0,4.09427,0.0249586,0.09725
228.317,0.0,0.0,4.09561,0.0249586,0.09725
230.317,0.0,0.0,4.09531,0.0249586,0.09725
232.317,0.0,0.0,4.09427,0.0249586,0.09725
234.317,0.0,0.0,4.09475,0.0249586,0.09725
236.317,0.0,0.0,4.09456,0.0249586,0.09725
238.317,0.0,0.0,4.09384,0.0249586,0.09725
240.317,0.0,0.0,4.09574,0.0249586,0.09725
242.317,0.0,0.0,4.09533,0.0249586,0.09725
244.317,0.0,0.0,4.09601,0.0249586,0.09725
246.317,0.0,0.0,4.09653,0.0249586,0.09725
248.317,0.0,0.0,4.09567,0.0249586,0.09725
250.317,0.0,0.0,4.09495,0.0249586,0.09725
252.317,0.0,0.0,4.09564,0.0249586,0.09725
254.317,0.0,0.0,4.0958,0.0249586,0.09725
256.317,0.0,0.0,4.09385,0.0249586,0.09725
258.317,0.0,0.0,4.09457,0.0249586,0.09725
260.317,0.0,0.0,4.09327,0.0249586,0.09725
262.317,0.0,0.0,4.09459,0.0249586,0.09725
264.317,0.0,0.0,4.09517,0.0249586,0.09725
266.317,0.0,0.0,4.09568,0.0249586,0.09725
268.317,0.0,0.0,4.09486,0.0249586,0.09725
270.317,0.0,0.0,4.09473,0.0249586,0.09725
272.317,0.0,0.0,4.09305,0.0249586,0.09725
274.317,0.0,0.0,4.09514,0.0249586,0.09725
276.317,0.0,0.0,4.09529,0.0249586,0.09725
278.317,0.0,0.0,4.09455,0.0249586,0.09725
280.317,0.0,0.0,4.0969,0.0249586,0.09725
282.317,0.0,0.0,4.09537,0.0249586,0.09725
284.317,0.0,0.0,4.09489,0.0249586,0.09725
286.317,0.0,0.0,4.0958,0.0249586,0.09725
288.317,0.0,0.0,4.09527,0.0249586,0.09725
290.317,0.0,0.0,4.09541,0.0249586,0.09725
292.317,0.0,0.0,4.09716,0.0249586,0.09725
294.317,0.0,0.0,4.09382,0.0249586,0.09725
296.317,0.0,0.0,4.0949,0.0249586,0.09725
298.317,0.0,0.0,4.09292,0.0249586,0.09725
300.317,0.0,0.0,4.09448,0.0249586,0.09725
302.317,0.0,0.0,4.09444,0.0249586,0.09725
304.317,0.0,0.0,4.09474,0.0249586,0.09725
306.317,0.0,0.0,4.09594,0.0249586,0.09725
308.317,0.0,0.0,4.09484,0.0249586,0.09725
310.317,0.0,0.0,4.09379,0.0249586,0.09725
312.317,0.0,0.0,4.09624,0.0249586,0.09725
314.317,0.0,0.0,4.09532,0.0249586,0.09725
316.317,0.0,0.0,4.09665,0.0249586,0.09725
318.317,0.0,0.0,4.09502,0.0249586,0.09725
320.317,0.0,0.0,4.09387,0.0249586,0.09725
322.317,0.0,0.0,4.09587,0.0249586,0.09725
324.317,0.0,0.0,4.09477,0.0249586,0.09725
326.317,0.0,0.0,4.09685,0.0249586,0.09725
328.317,0.0,0.0,4.09503,0.0249586,0.09725
330.317,0.0,0.0,4.09753,0.0249586,0.09725
332.317,0.0,0.0,4.09581,0.0249586,0.09725
334.317,0.0,0.0,4.09486,0.0249586,0.09725
336.317,0.0,0.0,4.09583,0.0249586,0.09725
338.317,0.0,0.0,4.09566,0.0249586,0.09725
340.317,0.0,0.0,4.09434,0.0249586,0.09725
342.317,0.0,0.0,4.09643,0.0249586,0.09725
344.317,0.0,0.0,4.09384,0.0249586,0.09725
346.317,0.0,0.0,4.09416,0.0249586,0.09725
348.317,0.0,0.0,4.09372,0.0249586,0.09725
350.317,0.0,0.0,4.09572,0.0249586,0.09725
352.317,0.0,0.0,4.09439,0.0249586,0.09725
354.317,0.0,0.0,4.09674,0.0249586,0.09725
356.317,0.0,0.0,4.09405,0.0249586,0.09725
358.317,0.0,0.0,4.09605,0.0249586,0.09725
360.317,0.0,0.0,4.0955,0.0249586,0.09725
362.317,0.0,0.0,4.09409,0.0249586,0.09725
364.317,0.0,0.0,4.09563,0.0249586,0.09725
366.317,0.0,0.0,4.09501,0.0249586,0.09725
368.317,0.0,0.0,4.09503,0.0249586,0.09725
370.0,0.0,0.0,4.09658,0.0249586,0.09725