Folder: battery-digital-twin-from-scratch/output (part 4)

File: use_case_2_5.0E.csv
Time [s],Current [A],Power [W],Voltage [V],Capacity [Ah],Energy [Wh]
0.0,0.0,0.0,4.09766,0.0,0.0
0.12,0.0,0.0,4.09698,0.0,0.0
0.48,0.0,0.0,4.09482,0.0,0.0
1.92,0.0,0.0,4.09577,0.0,0.0
3.92,0.0,0.0,4.09664,0.0,0.0
5.92,0.0,0.0,4.09744,0.0,0.0
7.92,0.0,0.0,4.09746,0.0,0.0
9.92,0.0,0.0,4.0966,0.0,0.0
11.92,0.0,0.0,4.0971,0.0,0.0
13.92,0.0,0.0,4.09662,0.0,0.0
15.92,0.0,0.0,4.09831,0.0,0.0
17.92,0.0,0.0,4.09704,0.0,0.0
19.92,0.0,0.0,4.09584,0.0,0.0
21.92,0.0,0.0,4.09642,0.0,0.0
23.92,0.0,0.0,4.09575,0.0,0.0
25.92,0.0,0.0,4.09707,0.0,0.0
27.92,0.0,0.0,4.09716,0.0,0.0
29.92,0.0,0.0,4.09447,0.0,0.0
31.92,0.0,0.0,4.09694,0.0,0.0
33.92,0.0,0.0,4.09513,0.0,0.0
35.92,0.0,0.0,4.09795,0.0,0.0
37.92,0.0,0.0,4.09616,0.0,0.0
39.92,0.0,0.0,4.09715,0.0,0.0
41.92,0.0,0.0,4.09684,0.0,0.0
43.92,0.0,0.0,4.09789,0.0,0.0
45.92,0.0,0.0,4.09674,0.0,0.0
47.92,0.0,0.0,4.09766,0.0,0.0
49.92,0.0,0.0,4.09607,0.0,0.0
51.92,0.0,0.0,4.09664,0.0,0.0
53.92,0.0,0.0,4.09614,0.0,0.0
55.92,0.0,0.0,4.09643,0.0,0.0
57.92,0.0,0.0,4.09849,0.0,0.0
59.92,0.0,0.0,4.09553,0.0,0.0
60,23.2379,87.51,3.7673,4.58653e-17,1.72721e-16
60.003,23.238,87.51,3.7662,1.93242e-05,7.27712e-05
60.012,23.2384,87.51,3.76666,7.72974e-05,0.000291085
60.0479,23.2399,87.51,3.76549,0.000309203,0.00116434
60.1197,23.2428,87.51,3.76503,0.000773066,0.00291085
60.2155,23.2466,87.51,3.76405,0.00139164,0.00523952
60.4071,23.2542,87.51,3.76392,0.00262915,0.00989688
60.7903,23.2693,87.51,3.76206,0.00510557,0.0192116
61.1735,23.2848,87.51,3.75738,0.00758362,0.0285263
61.7483,23.3095,87.51,3.75277,0.0113044,0.0424984
62.5147,23.3463,87.51,3.74914,0.0162724,0.0611278
63.2811,23.3879,87.51,3.74122,0.021249,0.0797572
64.0474,23.4341,87.51,3.73293,0.0262352,0.0983866
65.197,23.5111,87.51,3.72224,0.0337373,0.126331
66.7298,23.6245,87.51,3.70437,0.0437835,0.16359
68.4962,23.7654,87.51,3.6832,0.0554271,0.206527
70.0,23.8904,87.51,3.6624,0.0653952,0.243083
70.0041,0.0,0.0,4.00089,0.0653952,0.243083
70.0162,0.0,0.0,4.00181,0.0653952,0.243083
70.065,0.0,0.0,4.0002,0.0653952,0.243083
70.1299,0.0,0.0,4.00141,0.0653952,0.243083
70.2274,0.0,0.0,4.00066,0.0653952,0.243083
70.4222,0.0,0.0,4.0039,0.0653952,0.243083
70.6821,0.0,0.0,4.00616,0.0653952,0.243083
70.9419,0.0,0.0,4.00972,0.0653952,0.243083
71.3316,0.0,0.0,4.01043,0.0653952,0.243083
71.8513,0.0,0.0,4.01431,0.0653952,0.243083
72.371,0.0,0.0,4.01674,0.0653952,0.243083
72.8906,0.0,0.0,4.02191,0.0653952,0.243083
73.4103,0.0,0.0,4.02488,0.0653952,0.243083
74.4496,0.0,0.0,4.02989,0.0653952,0.243083
75.83,0.0,0.0,4.03437,0.0653952,0.243083
77.2104,0.0,0.0,4.03872,0.0653952,0.243083
78.5907,0.0,0.0,4.04374,0.0653952,0.243083
79.9711,0.0,0.0,4.04641,0.0653952,0.243083
81.3515,0.0,0.0,4.05045,0.0653952,0.243083
82.7318,0.0,0.0,4.05275,0.0653952,0.243083
84.1122,0.0,0.0,4.0571,0.0653952,0.243083
85.4925,0.0,0.0,4.05905,0.0653952,0.243083
86.8729,0.0,0.0,4.05906,0.0653952,0.243083
88.2533,0.0,0.0,4.05857,0.0653952,0.243083
90.2533,0.0,0.0,4.06458,0.0653952,0.243083
92.2533,0.0,0.0,4.06466,0.0653952,0.243083
94.2533,0.0,0.0,4.06676,0.0653952,0.243083
96.2533,0.0,0.0,4.06752,0.0653952,0.243083
98.2533,0.0,0.0,4.06886,0.0653952,0.243083
100.253,0.0,0.0,4.07264,0.0653952,0.243083
102.253,0.0,0.0,4.07248,0.0653952,0.243083
104.253,0.0,0.0,4.07543,0.0653952,0.243083
106.253,0.0,0.0,4.07572,0.0653952,0.243083
108.253,0.0,0.0,4.07734,0.0653952,0.243083
110.253,0.0,0.0,4.07774,0.0653952,0.243083
112.253,0.0,0.0,4.07888,0.0653952,0.243083
114.253,0.0,0.0,4.07906,0.0653952,0.243083
116.253,0.0,0.0,4.08033,0.0653952,0.243083
118.253,0.0,0.0,4.08146,0.0653952,0.243083
120.253,0.0,0.0,4.07989,0.0653952,0.243083
122.253,0.0,0.0,4.08265,0.0653952,0.243083
124.253,0.0,0.0,4.08249,0.0653952,0.243083
126.253,0.0,0.0,4.08395,0.0653952,0.243083
128.253,0.0,0.0,4.08459,0.0653952,0.243083
130.253,0.0,0.0,4.08519,0.0653952,0.243083
132.253,0.0,0.0,4.0844,0.0653952,0.243083
134.253,0.0,0.0,4.08437,0.0653952,0.243083
136.253,0.0,0.0,4.0842,0.0653952,0.243083
138.253,0.0,0.0,4.08585,0.0653952,0.243083
140.253,0.0,0.0,4.08672,0.0653952,0.243083
142.253,0.0,0.0,4.08642,0.0653952,0.243083
144.253,0.0,0.0,4.08615,0.0653952,0.243083
146.253,0.0,0.0,4.0866,0.0653952,0.243083
148.253,0.0,0.0,4.08545,0.0653952,0.243083
150.253,0.0,0.0,4.08614,0.0653952,0.243083
152.253,0.0,0.0,4.0875,0.0653952,0.243083
154.253,0.0,0.0,4.08959,0.0653952,0.243083
156.253,0.0,0.0,4.08934,0.0653952,0.243083
158.253,0.0,0.0,4.08762,0.0653952,0.243083
160.253,0.0,0.0,4.08916,0.0653952,0.243083
162.253,0.0,0.0,4.08996,0.0653952,0.243083
164.253,0.0,0.0,4.08959,0.0653952,0.243083
166.253,0.0,0.0,4.08926,0.0653952,0.243083
168.253,0.0,0.0,4.08757,0.0653952,0.243083
170.253,0.0,0.0,4.0911,0.0653952,0.243083
172.253,0.0,0.0,4.09194,0.0653952,0.243083
174.253,0.0,0.0,4.08745,0.0653952,0.243083
176.253,0.0,0.0,4.08964,0.0653952,0.243083
178.253,0.0,0.0,4.0883,0.0653952,0.243083
180.253,0.0,0.0,4.09072,0.0653952,0.243083
182.253,0.0,0.0,4.09066,0.0653952,0.243083
184.253,0.0,0.0,4.09043,0.0653952,0.243083
186.253,0.0,0.0,4.09034,0.0653952,0.243083
188.253,0.0,0.0,4.09108,0.0653952,0.243083
190.253,0.0,0.0,4.09114,0.0653952,0.243083
192.253,0.0,0.0,4.09117,0.0653952,0.243083
194.253,0.0,0.0,4.09174,0.0653952,0.243083
196.253,0.0,0.0,4.09232,0.0653952,0.243083
198.253,0.0,0.0,4.09219,0.0653952,0.243083
200.253,0.0,0.0,4.09121,0.0653952,0.243083
202.253,0.0,0.0,4.09146,0.0653952,0.243083
204.253,0.0,0.0,4.09109,0.0653952,0.243083
206.253,0.0,0.0,4.09091,0.0653952,0.243083
208.253,0.0,0.0,4.09187,0.0653952,0.243083
210.253,0.0,0.0,4.0923,0.0653952,0.243083
212.253,0.0,0.0,4.09183,0.0653952,0.243083
214.253,0.0,0.0,4.09293,0.0653952,0.243083
216.253,0.0,0.0,4.09077,0.0653952,0.243083
218.253,0.0,0.0,4.0905,0.0653952,0.243083
220.253,0.0,0.0,4.09345,0.0653952,0.243083
222.253,0.0,0.0,4.09108,0.0653952,0.243083
224.253,0.0,0.0,4.09241,0.0653952,0.243083
226.253,0.0,0.0,4.09256,0.0653952,0.243083
228.253,0.0,0.0,4.09219,0.0653952,0.243083
230.253,0.0,0.0,4.09274,0.0653952,0.243083
232.253,0.0,0.0,4.09288,0.0653952,0.243083
234.253,0.0,0.0,4.09227,0.0653952,0.243083
236.253,0.0,0.0,4.09192,0.0653952,0.243083
238.253,0.0,0.0,4.09217,0.0653952,0.243083
240.253,0.0,0.0,4.09183,0.0653952,0.243083
242.253,0.0,0.0,4.09103,0.0653952,0.243083
244.253,0.0,0.0,4.09077,0.0653952,0.243083
246.253,0.0,0.0,4.09202,0.0653952,0.243083
248.253,0.0,0.0,4.09402,0.0653952,0.243083
250.253,0.0,0.0,4.09283,0.0653952,0.243083
252.253,0.0,0.0,4.09147,0.0653952,0.243083
254.253,0.0,0.0,4.09154,0.0653952,0.243083
256.253,0.0,0.0,4.09461,0.0653952,0.243083
258.253,0.0,0.0,4.09087,0.0653952,0.243083
260.253,0.0,0.0,4.09373,0.0653952,0.243083
262.253,0.0,0.0,4.09159,0.0653952,0.243083
264.253,0.0,0.0,4.09199,0.0653952,0.243083
266.253,0.0,0.0,4.09311,0.0653952,0.243083
268.253,0.0,0.0,4.0924,0.0653952,0.243083
270.253,0.0,0.0,4.09188,0.0653952,0.243083
272.253,0.0,0.0,4.09208,0.0653952,0.243083
274.253,0.0,0.0,4.09183,0.0653952,0.243083
276.253,0.0,0.0,4.09307,0.0653952,0.243083
278.253,0.0,0.0,4.09104,0.0653952,0.243083
280.253,0.0,0.0,4.09307,0.0653952,0.243083
282.253,0.0,0.0,4.0925,0.0653952,0.243083
284.253,0.0,0.0,4.093,0.0653952,0.243083
286.253,0.0,0.0,4.09319,0.0653952,0.243083
288.253,0.0,0.0,4.09314,0.0653952,0.243083
290.253,0.0,0.0,4.09351,0.0653952,0.243083
292.253,0.0,0.0,4.09244,0.0653952,0.243083
294.253,0.0,0.0,4.0922,0.0653952,0.243083
296.253,0.0,0.0,4.09238,0.0653952,0.243083
298.253,0.0,0.0,4.093,0.0653952,0.243083
300.253,0.0,0.0,4.09423,0.0653952,0.243083
302.253,0.0,0.0,4.09382,0.0653952,0.243083
304.253,0.0,0.0,4.09255,0.0653952,0.243083
306.253,0.0,0.0,4.09124,0.0653952,0.243083
308.253,0.0,0.0,4.09322,0.0653952,0.243083
310.253,0.0,0.0,4.09182,0.0653952,0.243083
312.253,0.0,0.0,4.09261,0.0653952,0.243083
314.253,0.0,0.0,4.0935,0.0653952,0.243083
316.253,0.0,0.0,4.09373,0.0653952,0.243083
318.253,0.0,0.0,4.09171,0.0653952,0.243083
320.253,0.0,0.0,4.09166,0.0653952,0.243083
322.253,0.0,0.0,4.09126,0.0653952,0.243083
324.253,0.0,0.0,4.09104,0.0653952,0.243083
326.253,0.0,0.0,4.09273,0.0653952,0.243083
328.253,0.0,0.0,4.0948,0.0653952,0.243083
330.253,0.0,0.0,4.0931,0.0653952,0.243083
332.253,0.0,0.0,4.09279,0.0653952,0.243083
334.253,0.0,0.0,4.09133,0.0653952,0.243083
336.253,0.0,0.0,4.09172,0.0653952,0.243083
338.253,0.0,0.0,4.09341,0.0653952,0.243083
340.253,0.0,0.0,4.09241,0.0653952,0.243083
342.253,0.0,0.0,4.09301,0.0653952,0.243083
344.253,0.0,0.0,4.09194,0.0653952,0.243083
346.253,0.0,0.0,4.09363,0.0653952,0.243083
348.253,0.0,0.0,4.09334,0.0653952,0.243083
350.253,0.0,0.0,4.09376,0.0653952,0.243083
352.253,0.0,0.0,4.09392,0.0653952,0.243083
354.253,0.0,0.0,4.09246,0.0653952,0.243083
356.253,0.0,0.0,4.09198,0.0653952,0.243083
358.253,0.0,0.0,4.09424,0.0653952,0.243083
360.253,0.0,0.0,4.09434,0.0653952,0.243083
362.253,0.0,0.0,4.092,0.0653952,0.243083
364.253,0.0,0.0,4.09337,0.0653952,0.243083
366.253,0.0,0.0,4.09274,0.0653952,0.243083
368.253,0.0,0.0,4.09442,0.0653952,0.243083
370.0,0.0,0.0,4.09258,0.0653952,0.243083

File: use_case_2_10.0E.csv
Time [s],Current [A],Power [W],Voltage [V],Capacity [Ah],Energy [Wh]
0.0,0.0,0.0,4.09673,0.0,0.0
0.12,0.0,0.0,4.09697,0.0,0.0
0.48,0.0,0.0,4.0977,0.0,0.0
1.92,0.0,0.0,4.09572,0.0,0.0
3.92,0.0,0.0,4.09756,0.0,0.0
5.92,0.0,0.0,4.09621,0.0,0.0
7.92,0.0,0.0,4.096,0.0,0.0
9.92,0.0,0.0,4.09973,0.0,0.0
11.92,0.0,0.0,4.09701,0.0,0.0
13.92,0.0,0.0,4.09721,0.0,0.0
15.92,0.0,0.0,4.09709,0.0,0.0
17.92,0.0,0.0,4.09716,0.0,0.0
19.92,0.0,0.0,4.09594,0.0,0.0
21.92,0.0,0.0,4.09605,0.0,0.0
23.92,0.0,0.0,4.09646,0.0,0.0
25.92,0.0,0.0,4.09656,0.0,0.0
27.92,0.0,0.0,4.09572,0.0,0.0
29.92,0.0,0.0,4.09644,0.0,0.0
31.92,0.0,0.0,4.09703,0.0,0.0
33.92,0.0,0.0,4.09605,0.0,0.0
35.92,0.0,0.0,4.09756,0.0,0.0
37.92,0.0,0.0,4.09721,0.0,0.0
39.92,0.0,0.0,4.09704,0.0,0.0
41.92,0.0,0.0,4.09695,0.0,0.0
43.92,0.0,0.0,4.09642,0.0,0.0
45.92,0.0,0.0,4.09638,0.0,0.0
47.92,0.0,0.0,4.09549,0.0,0.0
49.92,0.0,0.0,4.09736,0.0,0.0
51.92,0.0,0.0,4.09782,0.0,0.0
53.92,0.0,0.0,4.09511,0.0,0.0
55.92,0.0,0.0,4.09668,0.0,0.0
57.92,0.0,0.0,4.09672,0.0,0.0
59.92,0.0,0.0,4.0966,0.0,0.0
60,48.6785,175.03,3.59518,9.60783e-17,3.45462e-16
60.0014,48.6788,175.03,3.59507,1.8877e-05,6.78746e-05
60.0056,48.6798,175.03,3.59492,7.55091e-05,0.000271498
60.0223,48.6834,175.03,3.59514,0.000302051,0.00108599
60.067,48.6927,175.03,3.59512,0.000906261,0.00325798
60.1117,48.7019,175.03,3.59365,0.00151059,0.00542997
60.201,48.7201,175.03,3.59383,0.00271963,0.00977394
60.335,48.7478,175.03,3.59041,0.00453417,0.0162899
60.5137,48.7865,175.03,3.58792,0.00695529,0.0249778
60.7818,48.8504,175.03,3.58486,0.0105914,0.0380098
61.1392,48.95,175.03,3.57528,0.0154482,0.0553856
61.4966,49.0675,175.03,3.56886,0.0203163,0.0727615
61.8539,49.2022,175.03,3.5562,0.0251974,0.0901374
62.2113,49.3531,175.03,3.54715,0.030093,0.107513
62.9261,49.7023,175.03,3.52175,0.0399431,0.142265
63.6051,50.1025,175.03,3.49359,0.0493737,0.175279
64.1488,50.4732,175.03,3.46754,0.056983,0.201714
64.8151,50.9638,175.03,3.43506,0.0663938,0.234105
65.6145,51.6045,175.03,3.39255,0.0778172,0.272974
66.374,52.2624,175.03,3.34968,0.0888076,0.3099
67.0935,52.9335,175.03,3.30683,0.0993527,0.344881
67.741,53.6078,175.028,3.26652,0.108964,0.376365
68.3886,54.3936,175.028,3.21903,0.118711,0.407848
69.0362,55.3726,175.029,3.16113,0.128625,0.439332
69.5836,56.4493,175.03,3.09999,0.137166,0.465947
69.9584,57.3818,175.03,3.0505,0.143116,0.484173
70,0.0,0.0,3.75354,0.14378,0.486194
70.0007,0.0,0.0,3.75587,0.14378,0.486194
70.0027,0.0,0.0,3.75494,0.14378,0.486194
70.0108,0.0,0.0,3.75687,0.14378,0.486194
70.027,0.0,0.0,3.75927,0.14378,0.486194
70.0487,0.0,0.0,3.75972,0.14378,0.486194
70.0811,0.0,0.0,3.76289,0.14378,0.486194
70.146,0.0,0.0,3.7679,0.14378,0.486194
70.2179,0.0,0.0,3.77446,0.14378,0.486194
70.2897,0.0,0.0,3.7777,0.14378,0.486194
70.4334,0.0,0.0,3.78544,0.14378,0.486194
70.577,0.0,0.0,3.7948,0.14378,0.486194
70.7207,0.0,0.0,3.80169,0.14378,0.486194
70.85,0.0,0.0,3.80745,0.14378,0.486194
70.9793,0.0,0.0,3.81308,0.14378,0.486194
71.1086,0.0,0.0,3.81829,0.14378,0.486194
71.2379,0.0,0.0,3.82054,0.14378,0.486194
71.3672,0.0,0.0,3.82566,0.14378,0.486194
71.4965,0.0,0.0,3.83102,0.14378,0.486194
71.7551,0.0,0.0,3.84122,0.14378,0.486194
72.0137,0.0,0.0,3.84739,0.14378,0.486194
72.2723,0.0,0.0,3.8511,0.14378,0.486194
72.5309,0.0,0.0,3.85991,0.14378,0.486194
72.7895,0.0,0.0,3.86402,0.14378,0.486194
73.0481,0.0,0.0,3.86989,0.14378,0.486194
73.3067,0.0,0.0,3.87472,0.14378,0.486194
73.6946,0.0,0.0,3.88172,0.14378,0.486194
74.2118,0.0,0.0,3.89209,0.14378,0.486194
74.729,0.0,0.0,3.89877,0.14378,0.486194
75.2461,0.0,0.0,3.90529,0.14378,0.486194
75.7633,0.0,0.0,3.91102,0.14378,0.486194
76.2805,0.0,0.0,3.91666,0.14378,0.486194
76.7977,0.0,0.0,3.9224,0.14378,0.486194
77.3149,0.0,0.0,3.92671,0.14378,0.486194
77.8321,0.0,0.0,3.93269,0.14378,0.486194
78.3493,0.0,0.0,3.93798,0.14378,0.486194
78.8665,0.0,0.0,3.94303,0.14378,0.486194
79.6423,0.0,0.0,3.94828,0.14378,0.486194
80.6767,0.0,0.0,3.95611,0.14378,0.486194
81.7111,0.0,0.0,3.96349,0.14378,0.486194
83.2282,0.0,0.0,3.97098,0.14378,0.486194
85.0282,0.0,0.0,3.98221,0.14378,0.486194
86.8282,0.0,0.0,3.98863,0.14378,0.486194
88.6282,0.0,0.0,3.99733,0.14378,0.486194
90.4282,0.0,0.0,4.00125,0.14378,0.486194
92.3282,0.0,0.0,4.0079,0.14378,0.486194
94.3282,0.0,0.0,4.01375,0.14378,0.486194
96.3282,0.0,0.0,4.01968,0.14378,0.486194
98.3282,0.0,0.0,4.02337,0.14378,0.486194
100.328,0.0,0.0,4.02884,0.14378,0.486194
102.328,0.0,0.0,4.03305,0.14378,0.486194
104.328,0.0,0.0,4.03431,0.14378,0.486194
106.328,0.0,0.0,4.03813,0.14378,0.486194
108.328,0.0,0.0,4.04192,0.14378,0.486194
110.328,0.0,0.0,4.04222,0.14378,0.486194
112.328,0.0,0.0,4.04636,0.14378,0.486194
114.328,0.0,0.0,4.04685,0.14378,0.486194
116.328,0.0,0.0,4.0478,0.14378,0.486194
118.328,0.0,0.0,4.04979,0.14378,0.486194
120.328,0.0,0.0,4.05285,0.14378,0.486194
122.328,0.0,0.0,4.05461,0.14378,0.486194
124.328,0.0,0.0,4.05532,0.14378,0.486194
126.328,0.0,0.0,4.05805,0.14378,0.486194
128.328,0.0,0.0,4.05838,0.14378,0.486194
130.328,0.0,0.0,4.05864,0.14378,0.486194
132.328,0.0,0.0,4.06136,0.14378,0.486194
134.328,0.0,0.0,4.06415,0.14378,0.486194
136.328,0.0,0.0,4.06369,0.14378,0.486194
138.328,0.0,0.0,4.06444,0.14378,0.486194
140.328,0.0,0.0,4.06646,0.14378,0.486194
142.328,0.0,0.0,4.06784,0.14378,0.486194
144.328,0.0,0.0,4.06496,0.14378,0.486194
146.328,0.0,0.0,4.0677,0.14378,0.486194
148.328,0.0,0.0,4.06961,0.14378,0.486194
150.328,0.0,0.0,4.07004,0.14378,0.486194
152.328,0.0,0.0,4.07142,0.14378,0.486194
154.328,0.0,0.0,4.07133,0.14378,0.486194
156.328,0.0,0.0,4.07041,0.14378,0.486194
158.328,0.0,0.0,4.07064,0.14378,0.486194
160.328,0.0,0.0,4.07208,0.14378,0.486194
162.328,0.0,0.0,4.07826,0.14378,0.486194
164.328,0.0,0.0,4.07436,0.14378,0.486194
166.328,0.0,0.0,4.07509,0.14378,0.486194
168.328,0.0,0.0,4.07538,0.14378,0.486194
170.328,0.0,0.0,4.07558,0.14378,0.486194
172.328,0.0,0.0,4.07631,0.14378,0.486194
174.328,0.0,0.0,4.07618,0.14378,0.486194
176.328,0.0,0.0,4.07802,0.14378,0.486194
178.328,0.0,0.0,4.07782,0.14378,0.486194
180.328,0.0,0.0,4.07774,0.14378,0.486194
182.328,0.0,0.0,4.07868,0.14378,0.486194
184.328,0.0,0.0,4.07729,0.14378,0.486194
186.328,0.0,0.0,4.07843,0.14378,0.486194
188.328,0.0,0.0,4.07842,0.14378,0.486194
190.328,0.0,0.0,4.08115,0.14378,0.486194
192.328,0.0,0.0,4.08009,0.14378,0.486194
194.328,0.0,0.0,4.0777,0.14378,0.486194
196.328,0.0,0.0,4.08079,0.14378,0.486194
198.328,0.0,0.0,4.08013,0.14378,0.486194
200.328,0.0,0.0,4.07826,0.14378,0.486194
202.328,0.0,0.0,4.08154,0.14378,0.486194
204.328,0.0,0.0,4.07911,0.14378,0.486194
206.328,0.0,0.0,4.08222,0.14378,0.486194
208.328,0.0,0.0,4.08109,0.14378,0.486194
210.328,0.0,0.0,4.0821,0.14378,0.486194
212.328,0.0,0.0,4.08143,0.14378,0.486194
214.328,0.0,0.0,4.08047,0.14378,0.486194
216.328,0.0,0.0,4.08124,0.14378,0.486194
218.328,0.0,0.0,4.08274,0.14378,0.486194
220.328,0.0,0.0,4.07915,0.14378,0.486194
222.328,0.0,0.0,4.08344,0.14378,0.486194
224.328,0.0,0.0,4.08215,0.14378,0.486194
226.328,0.0,0.0,4.08312,0.14378,0.486194
228.328,0.0,0.0,4.08291,0.14378,0.486194
230.328,0.0,0.0,4.08326,0.14378,0.486194
232.328,0.0,0.0,4.08223,0.14378,0.486194
234.328,0.0,0.0,4.08343,0.14378,0.486194
236.328,0.0,0.0,4.08397,0.14378,0.486194
238.328,0.0,0.0,4.08464,0.14378,0.486194
240.328,0.0,0.0,4.08355,0.14378,0.486194
242.328,0.0,0.0,4.08412,0.14378,0.486194
244.328,0.0,0.0,4.0854,0.14378,0.486194
246.328,0.0,0.0,4.0846,0.14378,0.486194
248.328,0.0,0.0,4.08404,0.14378,0.486194
250.328,0.0,0.0,4.08324,0.14378,0.486194
252.328,0.0,0.0,4.08348,0.14378,0.486194
254.328,0.0,0.0,4.08497,0.14378,0.486194
256.328,0.0,0.0,4.08431,0.14378,0.486194
258.328,0.0,0.0,4.08372,0.14378,0.486194
260.328,0.0,0.0,4.08276,0.14378,0.486194
262.328,0.0,0.0,4.08479,0.14378,0.486194
264.328,0.0,0.0,4.08314,0.14378,0.486194
266.328,0.0,0.0,4.08618,0.14378,0.486194
268.328,0.0,0.0,4.0853,0.14378,0.486194
270.328,0.0,0.0,4.08478,0.14378,0.486194
272.328,0.0,0.0,4.08398,0.14378,0.486194
274.328,0.0,0.0,4.08412,0.14378,0.486194
276.328,0.0,0.0,4.08453,0.14378,0.486194
278.328,0.0,0.0,4.08607,0.14378,0.486194
280.328,0.0,0.0,4.08534,0.14378,0.486194
282.328,0.0,0.0,4.08575,0.14378,0.486194
284.328,0.0,0.0,4.08422,0.14378,0.486194
286.328,0.0,0.0,4.08433,0.14378,0.486194
288.328,0.0,0.0,4.08727,0.14378,0.486194
290.328,0.0,0.0,4.08426,0.14378,0.486194
292.328,0.0,0.0,4.08665,0.14378,0.486194
294.328,0.0,0.0,4.08509,0.14378,0.486194
296.328,0.0,0.0,4.08655,0.14378,0.486194
298.328,0.0,0.0,4.08699,0.14378,0.486194
300.328,0.0,0.0,4.0865,0.14378,0.486194
302.328,0.0,0.0,4.08636,0.14378,0.486194
304.328,0.0,0.0,4.08597,0.14378,0.486194
306.328,0.0,0.0,4.0855,0.14378,0.486194
308.328,0.0,0.0,4.08703,0.14378,0.486194
310.328,0.0,0.0,4.08517,0.14378,0.486194
312.328,0.0,0.0,4.08598,0.14378,0.486194
314.328,0.0,0.0,4.08615,0.14378,0.486194
316.328,0.0,0.0,4.08574,0.14378,0.486194
318.328,0.0,0.0,4.08495,0.14378,0.486194
320.328,0.0,0.0,4.08533,0.14378,0.486194
322.328,0.0,0.0,4.08689,0.14378,0.486194
324.328,0.0,0.0,4.08588,0.14378,0.486194
326.328,0.0,0.0,4.08666,0.14378,0.486194
328.328,0.0,0.0,4.08495,0.14378,0.486194
330.328,0.0,0.0,4.08449,0.14378,0.486194
332.328,0.0,0.0,4.08647,0.14378,0.486194
334.328,0.0,0.0,4.08633,0.14378,0.486194
336.328,0.0,0.0,4.08706,0.14378,0.486194
338.328,0.0,0.0,4.08664,0.14378,0.486194
340.328,0.0,0.0,4.08556,0.14378,0.486194
342.328,0.0,0.0,4.08793,0.14378,0.486194
344.328,0.0,0.0,4.08596,0.14378,0.486194
346.328,0.0,0.0,4.08738,0.14378,0.486194
348.328,0.0,0.0,4.08676,0.14378,0.486194
350.328,0.0,0.0,4.08598,0.14378,0.486194
352.328,0.0,0.0,4.08488,0.14378,0.486194
354.328,0.0,0.0,4.08623,0.14378,0.486194
356.328,0.0,0.0,4.08676,0.14378,0.486194
358.328,0.0,0.0,4.08781,0.14378,0.486194
360.328,0.0,0.0,4.08669,0.14378,0.486194
362.328,0.0,0.0,4.08543,0.14378,0.486194
364.328,0.0,0.0,4.08586,0.14378,0.486194
366.328,0.0,0.0,4.0871,0.14378,0.486194
368.328,0.0,0.0,4.08701,0.14378,0.486194
370.0,0.0,0.0,4.08588,0.14378,0.486194