Folder: battery-digital-twin-from-scratch/output (part 2)

File: use_case_1_1.0E.csv
Time [s],Current [A],Power [W],Voltage [V],Capacity [Ah],Energy [Wh]
0.0,4.30255,17.5,4.0656,0.0,0.0
7.2187,4.33302,17.5,4.03889,0.00866339,0.0350909
24.2187,4.37324,17.5,4.00225,0.0292364,0.11773
41.2187,4.39547,17.5,3.97944,0.0499478,0.200369
58.2187,4.40923,17.5,3.96901,0.0707411,0.283008
75.2187,4.41794,17.5,3.96132,0.0915858,0.365646
92.2187,4.42344,17.5,3.95534,0.112463,0.448285
109.219,4.42693,17.5,3.95265,0.133361,0.530924
126.219,4.42928,17.5,3.95191,0.154272,0.613563
143.219,4.43105,17.5,3.94891,0.175193,0.696202
160.219,4.43257,17.5,3.94799,0.196121,0.778841
177.219,4.43399,17.5,3.94706,0.217056,0.86148
194.219,4.43543,17.5,3.94671,0.237998,0.944119
211.219,4.43701,17.5,3.94427,0.258947,1.02676
228.219,4.43879,17.5,3.94261,0.279904,1.1094
245.219,4.44085,17.5,3.94007,0.30087,1.19204
262.219,4.44322,17.5,3.93939,0.321846,1.27467
279.219,4.44594,17.5,3.9358,0.342835,1.35731
296.219,4.44901,17.5,3.93486,0.363837,1.43995
313.219,4.45242,17.5,3.93155,0.384854,1.52259
330.219,4.45615,17.5,3.9266,0.405889,1.60523
347.219,4.46017,17.5,3.92562,0.426942,1.68787
364.219,4.46445,17.5,3.91905,0.448014,1.77051
381.219,4.46895,17.5,3.91583,0.469108,1.85315
398.219,4.47364,17.5,3.9106,0.490223,1.93579
415.219,4.47849,17.5,3.90788,0.51136,2.01842
432.219,4.48346,17.5,3.90195,0.532521,2.10106
449.219,4.48853,17.5,3.89807,0.553706,2.1837
466.219,4.49366,17.5,3.89557,0.574914,2.26634
483.219,4.49884,17.5,3.88857,0.596147,2.34898
500.219,4.50404,17.5,3.88415,0.617405,2.43162
517.219,4.50924,17.5,3.88039,0.638687,2.51426
534.219,4.51443,17.5,3.8767,0.659994,2.5969
551.219,4.5196,17.5,3.87278,0.681325,2.67954
568.219,4.52472,17.5,3.86715,0.70268,2.76217
585.219,4.5298,17.5,3.86311,0.724059,2.84481
602.219,4.53483,17.5,3.86,0.745463,2.92745
619.219,4.53979,17.5,3.85239,0.76689,3.01009
636.219,4.54469,17.5,3.8504,0.78834,3.09273
653.219,4.54952,17.5,3.8447,0.809813,3.17537
670.219,4.55428,17.5,3.84364,0.831309,3.25801
687.219,4.55898,17.5,3.83744,0.852827,3.34065
704.219,4.56362,17.5,3.8344,0.874367,3.42329
721.219,4.5682,17.5,3.8292,0.895929,3.50592
738.219,4.57272,17.5,3.8281,0.917512,3.58856
755.219,4.5772,17.5,3.82217,0.939117,3.6712
772.219,4.58164,17.5,3.82049,0.960743,3.75384
789.219,4.58605,17.5,3.81692,0.982389,3.83648
806.219,4.59046,17.5,3.81225,1.00406,3.91912
823.219,4.59485,17.5,3.80944,1.02574,4.00176
840.219,4.59926,17.5,3.8022,1.04745,4.0844
857.219,4.60368,17.5,3.79975,1.06918,4.16704
874.219,4.60813,17.5,3.79734,1.09093,4.24967
891.219,4.6126,17.5,3.79161,1.11271,4.33231
908.219,4.61712,17.5,3.79075,1.1345,4.41495
925.219,4.62168,17.5,3.78736,1.15631,4.49759
942.219,4.62628,17.5,3.7849,1.17815,4.58023
959.219,4.63093,17.5,3.77959,1.20001,4.66287
976.219,4.63564,17.5,3.77505,1.22189,4.74551
993.219,4.64039,17.5,3.77034,1.24379,4.82815
1010.22,4.64521,17.5,3.76759,1.26571,4.91079
1027.22,4.65008,17.5,3.76588,1.28766,4.99342
1044.22,4.65501,17.5,3.76006,1.30963,5.07606
1061.22,4.66,17.5,3.75533,1.33163,5.1587
1078.22,4.66507,17.5,3.75323,1.35365,5.24134
1095.22,4.6702,17.5,3.74659,1.37569,5.32398
1112.22,4.67541,17.5,3.74238,1.39776,5.40662
1129.22,4.6807,17.5,3.7383,1.41985,5.48926
1146.22,4.68608,17.5,3.73356,1.44196,5.5719
1163.22,4.69154,17.5,3.72985,1.46411,5.65454
1180.22,4.6971,17.5,3.72757,1.48627,5.73717
1197.22,4.70276,17.5,3.72094,1.50847,5.81981
1214.22,4.70852,17.5,3.71735,1.53069,5.90245
1231.22,4.71439,17.5,3.71203,1.55294,5.98509
1248.22,4.72039,17.5,3.7066,1.57522,6.06773
1265.22,4.7265,17.5,3.70154,1.59752,6.15037
1282.22,4.73275,17.5,3.69822,1.61986,6.23301
1299.22,4.73912,17.5,3.69449,1.64222,6.31565
1316.22,4.74564,17.5,3.68698,1.66462,6.39829
1333.22,4.75229,17.5,3.68251,1.68705,6.48092
1350.22,4.75908,17.5,3.67525,1.7095,6.56356
1367.22,4.766,17.5,3.67232,1.73199,6.6462
1384.22,4.77303,17.5,3.6659,1.75452,6.72884
1401.22,4.78017,17.5,3.66021,1.77708,6.81148
1418.22,4.78738,17.5,3.65723,1.79967,6.89412
1435.22,4.79464,17.5,3.64979,1.82229,6.97676
1452.22,4.80191,17.5,3.64305,1.84495,7.0594
1469.22,4.80917,17.5,3.64027,1.86764,7.14204
1486.22,4.81638,17.5,3.63242,1.89037,7.22467
1503.22,4.82351,17.5,3.6277,1.91313,7.30731
1520.22,4.83057,17.5,3.6233,1.93593,7.38995
1537.22,4.83752,17.5,3.61704,1.95876,7.47259
1554.22,4.84437,17.5,3.61206,1.98162,7.55523
1571.22,4.8511,17.5,3.60793,2.00451,7.63787
1588.22,4.85772,17.5,3.60186,2.02744,7.72051
1605.22,4.86422,17.5,3.59552,2.05039,7.80315
1622.22,4.87061,17.5,3.59348,2.07338,7.88579
1639.22,4.87687,17.5,3.58944,2.09639,7.96842
1656.22,4.88302,17.5,3.58452,2.11944,8.05106
1673.22,4.88904,17.5,3.58138,2.14251,8.1337
1690.22,4.89495,17.5,3.57482,2.16562,8.21634
1707.22,4.90074,17.5,3.57164,2.18874,8.29898
1724.22,4.90641,17.5,3.56781,2.2119,8.38162
1741.22,4.91197,17.5,3.56432,2.23508,8.46426
1758.22,4.91743,17.5,3.5595,2.25829,8.5469
1775.22,4.92278,17.5,3.55588,2.28153,8.62954
1792.22,4.92803,17.5,3.55105,2.30479,8.71217
1809.22,4.93318,17.5,3.54837,2.32807,8.79481
1826.22,4.93825,17.5,3.54461,2.35138,8.87745
1843.22,4.94325,17.5,3.53959,2.37471,8.96009
1860.22,4.94817,17.5,3.53762,2.39807,9.04273
1877.22,4.95302,17.5,3.53311,2.42145,9.12537
1894.22,4.95782,17.5,3.53049,2.44485,9.20801
1911.22,4.96258,17.5,3.52701,2.46827,9.29065
1928.22,4.96729,17.5,3.52325,2.49172,9.37329
1945.22,4.97197,17.5,3.51935,2.51519,9.45592
1962.22,4.97663,17.5,3.51684,2.53868,9.53856
1979.22,4.98127,17.5,3.51268,2.56219,9.6212
1996.22,4.9859,17.5,3.5092,2.58572,9.70384
2013.22,4.99052,17.5,3.50671,2.60928,9.78648
2030.22,4.99515,17.5,3.50262,2.63286,9.86912
2047.22,4.99979,17.5,3.5006,2.65646,9.95176
2064.22,5.00444,17.5,3.49737,2.68008,10.0344
2081.22,5.00911,17.5,3.49277,2.70372,10.117
2098.22,5.0138,17.5,3.49068,2.72739,10.1997
2115.22,5.01853,17.5,3.48739,2.75108,10.2823
2132.22,5.02328,17.5,3.48502,2.77479,10.365
2149.22,5.02807,17.5,3.48018,2.79852,10.4476
2166.22,5.0329,17.5,3.47789,2.82228,10.5302
2183.22,5.03777,17.5,3.47399,2.84605,10.6129
2200.22,5.04269,17.5,3.47067,2.86986,10.6955
2217.22,5.04766,17.5,3.46605,2.89368,10.7781
2234.22,5.05268,17.5,3.46475,2.91753,10.8608
2251.22,5.05775,17.5,3.46028,2.9414,10.9434
2268.22,5.06289,17.5,3.45704,2.9653,11.0261
2285.22,5.06808,17.5,3.4546,2.98922,11.1087
2302.22,5.07334,17.5,3.44982,3.01317,11.1913
2319.22,5.07866,17.5,3.44477,3.03714,11.274
2336.22,5.08406,17.5,3.44187,3.06113,11.3566
2353.22,5.08953,17.5,3.43858,3.08515,11.4393
2370.22,5.09507,17.5,3.43656,3.1092,11.5219
2387.22,5.1007,17.5,3.43023,3.13328,11.6045
2404.22,5.1064,17.5,3.42837,3.15738,11.6872
2421.22,5.1122,17.5,3.42361,3.1815,11.7698
2438.22,5.11809,17.5,3.4188,3.20566,11.8525
2455.22,5.12408,17.5,3.4162,3.22984,11.9351
2472.22,5.13016,17.5,3.41313,3.25406,12.0177
2489.22,5.13636,17.5,3.40557,3.2783,12.1004
2506.22,5.14266,17.5,3.40456,3.30257,12.183
2523.22,5.14909,17.5,3.39795,3.32687,12.2656
2540.22,5.15564,17.5,3.39654,3.3512,12.3483
2557.22,5.16231,17.5,3.39067,3.37556,12.4309
2574.22,5.16913,17.5,3.38612,3.39996,12.5136
2591.22,5.17609,17.5,3.38213,3.42438,12.5962
2608.22,5.18319,17.5,3.3766,3.44885,12.6788
2625.22,5.19045,17.5,3.37152,3.47334,12.7615
2642.22,5.19786,17.5,3.36799,3.49787,12.8441
2659.22,5.20543,17.5,3.36293,3.52243,12.9268
2676.22,5.21315,17.5,3.35622,3.54703,13.0094
2693.22,5.22101,17.5,3.35113,3.57167,13.092
2710.22,5.22901,17.5,3.34626,3.59635,13.1747
2727.22,5.23712,17.5,3.34166,3.62106,13.2573
2744.22,5.24533,17.5,3.33772,3.64581,13.34
2761.22,5.25362,17.5,3.32904,3.6706,13.4226
2778.22,5.26197,17.5,3.32516,3.69543,13.5052
2795.22,5.27034,17.5,3.32108,3.7203,13.5879
2812.22,5.27873,17.5,3.3166,3.74521,13.6705
2829.22,5.28712,17.5,3.3101,3.77016,13.7531
2846.22,5.29549,17.5,3.30379,3.79514,13.8358
2863.22,5.30386,17.5,3.29929,3.82017,13.9184
2880.22,5.31222,17.5,3.29391,3.84524,14.0011
2897.22,5.3206,17.5,3.28882,3.87034,14.0837
2914.22,5.32902,17.5,3.28295,3.89549,14.1663
2931.22,5.3375,17.5,3.27828,3.92068,14.249
2948.22,5.34609,17.5,3.2721,3.9459,14.3316
2965.22,5.35481,17.5,3.26705,3.97117,14.4143
2982.22,5.36371,17.5,3.26359,3.99648,14.4969
2999.22,5.37283,17.5,3.25727,4.02183,14.5795
3016.22,5.38222,17.5,3.25215,4.04722,14.6622
3033.22,5.39192,17.5,3.24557,4.07266,14.7448
3050.22,5.40197,17.5,3.24217,4.09815,14.8275
3067.22,5.41246,17.5,3.23401,4.12369,14.9101
3084.22,5.42343,17.5,3.22685,4.14927,14.9927
3101.22,5.43498,17.5,3.22065,4.17491,15.0754
3118.22,5.44721,17.5,3.21218,4.20061,15.158
3135.22,5.46025,17.5,3.20514,4.22636,15.2406
3152.22,5.47428,17.5,3.19904,4.25218,15.3233
3169.22,5.48953,17.5,3.18736,4.27807,15.4059
3186.22,5.50631,17.5,3.17714,4.30403,15.4886
3203.22,5.52502,17.5,3.16744,4.33008,15.5712
3220.22,5.54613,17.5,3.15582,4.35622,15.6538
3237.22,5.57015,17.5,3.14109,4.38247,15.7365
3254.22,5.59748,17.5,3.12666,4.40884,15.8191
3271.22,5.62821,17.5,3.10876,4.43535,15.9018
3288.22,5.66212,17.5,3.09215,4.46201,15.9844
3305.22,5.69864,17.5,3.07019,4.48884,16.067
3322.22,5.73709,17.5,3.05031,4.51585,16.1497
3339.22,5.77678,17.5,3.02844,4.54304,16.2323
3356.22,5.81727,17.5,3.00875,4.57042,16.315
3373.22,5.85844,17.5,2.98809,4.59799,16.3976
3390.22,5.90054,17.5,2.96631,4.62576,16.4802
3407.22,5.94426,17.5,2.94456,4.65373,16.5629
3424.22,5.99069,17.5,2.92127,4.68192,16.6455
3441.22,6.04137,17.5,2.89473,4.71033,16.7281
3458.22,6.09833,17.5,2.87117,4.739,16.8108
3475.22,6.16433,17.5,2.84005,4.76796,16.8934
3492.22,6.24311,17.5,2.80419,4.79726,16.9761
3509.22,6.33998,17.5,2.76031,4.82697,17.0587
3526.22,6.46278,17.5,2.70855,4.85721,17.1413
3543.22,6.62393,17.5,2.64069,4.88811,17.224
3560.22,6.84477,17.5,2.55534,4.91991,17.3066
3569.3,6.99999,17.5,2.49938,4.93738,17.3507

File: use_case_1_2.0E.csv
Time [s],Current [A],Power [W],Voltage [V],Capacity [Ah],Energy [Wh]
0.0,8.75733,35.01,3.9997,0.0,0.0
0.192114,8.76156,35.01,3.99569,0.000467478,0.00186831
2.11326,8.80122,35.01,3.9783,0.00515587,0.0205514
7.16247,8.88302,35.01,3.94119,0.0175698,0.0696551
14.1625,8.95641,35.01,3.91071,0.0349297,0.13773
21.1625,9.00118,35.01,3.88913,0.0523981,0.205805
28.1625,9.02914,35.01,3.87534,0.0699335,0.27388
35.1625,9.04795,35.01,3.86875,0.087512,0.341955
42.1625,9.06265,35.01,3.86491,0.105122,0.41003
49.1625,9.07579,35.01,3.85697,0.122758,0.478105
56.1625,9.08823,35.01,3.85356,0.14042,0.54618
63.1625,9.10042,35.01,3.84604,0.158105,0.614255
70.1625,9.11265,35.01,3.84104,0.175814,0.68233
77.1625,9.12508,35.01,3.83583,0.193546,0.750405
84.1625,9.13793,35.01,3.83063,0.211304,0.81848
91.1625,9.15126,35.01,3.82677,0.229087,0.886555
98.1625,9.16509,35.01,3.82041,0.246896,0.95463
105.162,9.17935,35.01,3.81499,0.264733,1.02271
112.162,9.19398,35.01,3.80697,0.282598,1.09078
119.162,9.20886,35.01,3.79999,0.300492,1.15886
126.162,9.22393,35.01,3.79559,0.318415,1.22693
133.162,9.23904,35.01,3.78889,0.336367,1.29501
140.162,9.25412,35.01,3.78483,0.354348,1.36308
147.162,9.26907,35.01,3.77785,0.372359,1.43116
154.162,9.28386,35.01,3.77167,0.390399,1.49923
161.162,9.29841,35.01,3.76552,0.408467,1.56731
168.162,9.3127,35.01,3.75822,0.426563,1.63538
175.162,9.32671,35.01,3.75399,0.444687,1.70346
182.162,9.3404,35.01,3.74767,0.462837,1.77153
189.162,9.35379,35.01,3.74247,0.481014,1.83961
196.162,9.36685,35.01,3.7392,0.499216,1.90768
203.162,9.37961,35.01,3.73451,0.517444,1.97576
210.162,9.39206,35.01,3.72547,0.535696,2.04383
217.162,9.40424,35.01,3.72169,0.553972,2.11191
224.162,9.41615,35.01,3.71814,0.572271,2.17998
231.162,9.42783,35.01,3.71393,0.590593,2.24806
238.162,9.4393,35.01,3.70958,0.608938,2.31613
245.162,9.45061,35.01,3.7035,0.627305,2.38421
252.162,9.4618,35.01,3.70087,0.645694,2.45228
259.162,9.4729,35.01,3.69575,0.664104,2.52036
266.162,9.48395,35.01,3.691,0.682536,2.58843
273.162,9.49498,35.01,3.68713,0.700989,2.65651
280.162,9.50603,35.01,3.68177,0.719464,2.72458
287.162,9.51711,35.01,3.67715,0.73796,2.79266
294.162,9.52826,35.01,3.67701,0.756478,2.86073
301.162,9.53947,35.01,3.67088,0.775017,2.92881
308.162,9.55078,35.01,3.66563,0.793579,2.99688
315.162,9.56219,35.01,3.661,0.812162,3.06496
322.162,9.57371,35.01,3.65785,0.830768,3.13303
329.162,9.58537,35.01,3.65186,0.849397,3.20111
336.162,9.59716,35.01,3.64688,0.868048,3.26918
343.162,9.60909,35.01,3.64449,0.886723,3.33726
350.162,9.62118,35.01,3.63795,0.90542,3.40533
357.162,9.63343,35.01,3.6355,0.924142,3.47341
364.162,9.64585,35.01,3.62954,0.942887,3.54148
371.162,9.65843,35.01,3.625,0.961657,3.60956
378.162,9.67119,35.01,3.61998,0.980451,3.67763
385.162,9.68412,35.01,3.61357,0.999271,3.74571
392.162,9.69724,35.01,3.61105,1.01812,3.81378
399.162,9.71053,35.01,3.60628,1.03699,3.88186
406.162,9.72401,35.01,3.60179,1.05588,3.94993
413.162,9.73766,35.01,3.59447,1.07481,4.01801
420.162,9.7515,35.01,3.58993,1.09376,4.08608
427.162,9.7655,35.01,3.58524,1.11273,4.15416
434.162,9.77968,35.01,3.58003,1.13174,4.22223
441.162,9.79402,35.01,3.57473,1.15077,4.29031
448.162,9.80852,35.01,3.56861,1.16983,4.35838
455.162,9.82317,35.01,3.56493,1.18892,4.42646
462.162,9.83796,35.01,3.55775,1.20803,4.49453
469.162,9.85288,35.01,3.55398,1.22718,4.56261
476.162,9.86792,35.01,3.54819,1.24635,4.63068
483.162,9.88306,35.01,3.54242,1.26556,4.69876
490.162,9.89828,35.01,3.53631,1.28479,4.76683
497.162,9.91357,35.01,3.5331,1.30406,4.83491
504.162,9.9289,35.01,3.52541,1.32335,4.90298
511.162,9.94425,35.01,3.52199,1.34267,4.97106
518.162,9.9596,35.01,3.51649,1.36203,5.03913
525.162,9.97493,35.01,3.50988,1.38141,5.10721
532.162,9.99022,35.01,3.50315,1.40082,5.17528
539.162,10.0054,35.01,3.49738,1.42026,5.24336
546.162,10.0205,35.01,3.49449,1.43974,5.31143
553.162,10.0355,35.01,3.48884,1.45924,5.37951
560.162,10.0504,35.01,3.48484,1.47877,5.44758
567.162,10.0651,35.01,3.4786,1.49833,5.51566
574.162,10.0796,35.01,3.47391,1.51791,5.58373
581.162,10.0939,35.01,3.4691,1.53753,5.65181
588.162,10.108,35.01,3.46204,1.55717,5.71988
595.162,10.1218,35.01,3.46006,1.57684,5.78796
602.162,10.1355,35.01,3.45272,1.59654,5.85603
609.162,10.1489,35.01,3.4488,1.61626,5.92411
616.162,10.1621,35.01,3.44549,1.63601,5.99218
623.162,10.1751,35.01,3.44148,1.65578,6.06026
630.162,10.1878,35.01,3.43654,1.67558,6.12833
637.162,10.2003,35.01,3.43196,1.69541,6.19641
644.162,10.2126,35.01,3.42816,1.71525,6.26448
651.162,10.2248,35.01,3.42549,1.73512,6.33256
658.162,10.2367,35.01,3.41958,1.75502,6.40063
665.162,10.2485,35.01,3.41649,1.77494,6.46871
672.162,10.2601,35.01,3.41219,1.79488,6.53678
679.162,10.2716,35.01,3.40907,1.81484,6.60486
686.162,10.2829,35.01,3.40511,1.83483,6.67293
693.162,10.2942,35.01,3.40168,1.85483,6.74101
700.162,10.3053,35.01,3.39862,1.87486,6.80908
707.162,10.3164,35.01,3.39382,1.89491,6.87716
714.162,10.3274,35.01,3.38819,1.91498,6.94523
721.162,10.3383,35.01,3.3867,1.93508,7.01331
728.162,10.3493,35.01,3.38266,1.95519,7.08138
735.162,10.3601,35.01,3.37918,1.97533,7.14946
742.162,10.371,35.01,3.37543,1.99548,7.21753
749.162,10.3818,35.01,3.37176,2.01566,7.28561
756.162,10.3926,35.01,3.3687,2.03586,7.35368
763.162,10.4035,35.01,3.36458,2.05608,7.42176
770.162,10.4143,35.01,3.35986,2.07632,7.48983
777.162,10.4251,35.01,3.35856,2.09658,7.55791
784.162,10.4359,35.01,3.35375,2.11687,7.62598
791.162,10.4468,35.01,3.35135,2.13717,7.69406
798.162,10.4577,35.01,3.34791,2.1575,7.76213
805.162,10.4687,35.01,3.34354,2.17784,7.83021
812.162,10.4797,35.01,3.33987,2.19821,7.89828
819.162,10.4908,35.01,3.3375,2.2186,7.96636
826.162,10.502,35.01,3.33325,2.23901,8.03443
833.162,10.5133,35.01,3.32663,2.25944,8.10251
840.162,10.5248,35.01,3.32768,2.2799,8.17058
847.162,10.5363,35.01,3.32396,2.30038,8.23866
854.162,10.548,35.01,3.32018,2.32088,8.30673
861.162,10.5598,35.01,3.316,2.3414,8.37481
868.162,10.5718,35.01,3.30934,2.36195,8.44288
875.162,10.584,35.01,3.30848,2.38252,8.51096
882.162,10.5963,35.01,3.30313,2.40311,8.57903
889.162,10.6088,35.01,3.30037,2.42373,8.64711
896.162,10.6215,35.01,3.2959,2.44437,8.71518
903.162,10.6343,35.01,3.29416,2.46504,8.78326
910.162,10.6474,35.01,3.28631,2.48573,8.85133
917.162,10.6606,35.01,3.28432,2.50645,8.91941
924.162,10.674,35.01,3.27991,2.52719,8.98748
931.162,10.6876,35.01,3.27572,2.54796,9.05556
938.162,10.7015,35.01,3.27114,2.56876,9.12363
945.162,10.7155,35.01,3.26692,2.58958,9.19171
952.162,10.7297,35.01,3.26432,2.61043,9.25978
959.162,10.7441,35.01,3.25852,2.63131,9.32786
966.162,10.7587,35.01,3.25497,2.65222,9.39593
973.162,10.7735,35.01,3.2503,2.67316,9.46401
980.162,10.7885,35.01,3.24537,2.69412,9.53208
987.162,10.8036,35.01,3.24052,2.71512,9.60016
994.162,10.819,35.01,3.23696,2.73614,9.66823
1001.16,10.8346,35.01,3.23173,2.75719,9.73631
1008.16,10.8503,35.01,3.2272,2.77828,9.80438
1015.16,10.8663,35.01,3.22234,2.7994,9.87246
1022.16,10.8824,35.01,3.21882,2.82054,9.94053
1029.16,10.8987,35.01,3.21348,2.84172,10.0086
1036.16,10.9151,35.01,3.20907,2.86293,10.0767
1043.16,10.9318,35.01,3.2048,2.88417,10.1448
1050.16,10.9486,35.01,3.19872,2.90545,10.2128
1057.16,10.9656,35.01,3.19228,2.92676,10.2809
1064.16,10.9827,35.01,3.18649,2.9481,10.349
1071.16,11,35.01,3.18191,2.96947,10.4171
1078.16,11.0174,35.01,3.17787,2.99088,10.4851
1085.16,11.035,35.01,3.17364,3.01232,10.5532
1092.16,11.0528,35.01,3.168,3.0338,10.6213
1099.16,11.0707,35.01,3.16135,3.05531,10.6894
1106.16,11.0888,35.01,3.15504,3.07686,10.7574
1113.16,11.1071,35.01,3.15363,3.09844,10.8255
1120.16,11.1255,35.01,3.14741,3.12006,10.8936
1127.16,11.1441,35.01,3.14168,3.14171,10.9617
1134.16,11.1629,35.01,3.13587,3.1634,11.0297
1141.16,11.1819,35.01,3.13031,3.18513,11.0978
1148.16,11.2011,35.01,3.12462,3.20689,11.1659
1155.16,11.2206,35.01,3.12028,3.22869,11.234
1162.16,11.2403,35.01,3.11385,3.25053,11.302
1169.16,11.2604,35.01,3.10877,3.27241,11.3701
1176.16,11.2807,35.01,3.1042,3.29433,11.4382
1183.16,11.3014,35.01,3.09764,3.31628,11.5063
1190.16,11.3225,35.01,3.09264,3.33828,11.5743
1197.16,11.344,35.01,3.08679,3.36032,11.6424
1204.16,11.366,35.01,3.08174,3.3824,11.7105
1211.16,11.3885,35.01,3.07444,3.40453,11.7786
1218.16,11.4115,35.01,3.06697,3.4267,11.8466
1225.16,11.4352,35.01,3.06233,3.44892,11.9147
1232.16,11.4596,35.01,3.0547,3.47118,11.9828
1239.16,11.4847,35.01,3.04946,3.49349,12.0509
1246.16,11.5106,35.01,3.04077,3.51585,12.1189
1253.16,11.5373,35.01,3.03365,3.53826,12.187
1260.16,11.565,35.01,3.02664,3.56072,12.2551
1267.16,11.5938,35.01,3.02115,3.58324,12.3232
1274.16,11.6237,35.01,3.01273,3.60582,12.3912
1281.16,11.6548,35.01,3.0043,3.62845,12.4593
1288.16,11.6873,35.01,2.99653,3.65115,12.5274
1295.16,11.7212,35.01,2.98815,3.67392,12.5955
1302.16,11.7568,35.01,2.97884,3.69675,12.6635
1309.16,11.7941,35.01,2.96666,3.71965,12.7316
1316.16,11.8334,35.01,2.95967,3.74262,12.7997
1323.16,11.8748,35.01,2.94919,3.76568,12.8678
1330.16,11.9188,35.01,2.9375,3.78882,12.9358
1337.16,11.9657,35.01,2.92529,3.81204,13.0039
1344.16,12.0161,35.01,2.91432,3.83537,13.072
1351.16,12.0705,35.01,2.90143,3.85879,13.1401
1358.16,12.1302,35.01,2.88635,3.88233,13.2081
1365.16,12.1965,35.01,2.87088,3.90599,13.2762
1372.16,12.272,35.01,2.85287,3.92978,13.3443
1379.16,12.3607,35.01,2.83147,3.95374,13.4124
1386.16,12.4706,35.01,2.80793,3.97789,13.4804
1393.16,12.6196,35.01,2.77516,4.0023,13.5485
1400.16,12.8652,35.01,2.72239,4.02709,13.6166
1402.01,12.9722,35.01,2.6981,4.03373,13.6346
1403.74,13.1125,35.01,2.66957,4.03998,13.6513
1404.91,13.2555,35.01,2.64043,4.04427,13.6627
1405.52,13.3607,35.01,2.62078,4.04654,13.6687
1405.96,13.4628,35.01,2.59953,4.04819,13.673
1406.18,13.5251,35.01,2.58835,4.04899,13.6751
1406.37,13.5926,35.01,2.57708,4.04973,13.677
1406.73,13.7481,35.01,2.54461,4.05107,13.6804
1406.98,13.9189,35.01,2.51586,4.05203,13.6828
1407.05,13.9936,35.01,2.50397,4.0523,13.6835
1407.06,14.004,35.01,2.50071,4.05234,13.6836