Folder: battery-digital-twin-from-scratch/output (part 5)

File: use_case_3.csv
Time [s],Current [A],Power [W],Voltage [V],Capacity [Ah],Energy [Wh]
0.0,0.194,0.793346,4.0916,0.0,0.0
8.3,2.744,11.0022,4.00993,0.00243381,0.00976188
16.6,4.856,19.231,3.96187,0.0120822,0.048101
24.9,4.495,17.8018,3.96021,0.0227228,0.090251
33.2,6.607,25.8618,3.91464,0.0377977,0.149351
41.5,5.731,22.466,3.91958,0.0514213,0.202762
49.8,8.435,32.6584,3.87265,0.0651863,0.256597
58.1,3.619,14.2718,3.94314,0.0791159,0.310769
66.4,3.542,13.9808,3.94693,0.0875286,0.34395
74.7,3.748,14.7779,3.94196,0.0960057,0.377388
83.0,10.238,39.1768,3.82637,0.112089,0.439505
91.3,4.753,18.5577,3.90281,0.124371,0.487255
99.6,4.572,17.8605,3.90633,0.135025,0.528874
107.9,6.581,25.4409,3.86582,0.14781,0.578542
116.2,6.684,25.7596,3.85432,0.162934,0.636933
124.5,2.924,11.483,3.92628,0.171938,0.671984
132.8,2.924,11.4993,3.93187,0.178705,0.698577
141.1,3.053,12.0064,3.93415,0.185482,0.725239
149.4,4.186,16.3616,3.90995,0.193383,0.756235
157.7,4.238,16.5407,3.9044,0.20326,0.794799
166.0,4.469,17.4082,3.89334,0.213026,0.832897
174.3,3.156,12.3728,3.91944,0.221861,0.867395
182.6,3.104,12.1794,3.92306,0.228744,0.894414
190.9,5.86,22.6227,3.86172,0.241932,0.945414
199.2,5.937,22.856,3.85044,0.255614,0.998149
207.5,8.41,32.0513,3.81244,0.266703,1.04095
215.8,6.015,23.0281,3.82947,0.285125,1.11103
224.1,6.118,23.3868,3.82265,0.299098,1.16449
232.4,3.104,12.0322,3.87489,0.311779,1.21302
240.7,2.976,11.5718,3.88729,0.318418,1.23882
249.0,4.624,17.8146,3.85298,0.329044,1.27978
257.3,6.607,25.2092,3.81674,0.340548,1.32399
265.6,6.581,25.0409,3.80591,0.355804,1.38211
273.9,5.68,21.6734,3.81542,0.368903,1.43211
282.2,8.332,31.3908,3.76681,0.384022,1.4895
290.5,3.645,14.0205,3.84761,0.395391,1.53278
298.8,3.671,14.1356,3.85028,0.403941,1.56568
307.1,3.619,13.9479,3.85316,0.412419,1.59833
315.4,4.624,17.6504,3.81836,0.430429,1.66608
323.7,4.727,18.0482,3.81792,0.441162,1.70706
332.0,4.598,17.5685,3.81971,0.45181,1.74774
340.3,6.607,24.9806,3.77925,0.46551,1.79972
348.6,6.633,25.0288,3.77282,0.48053,1.85647
356.9,2.95,11.3532,3.84826,0.487763,1.88423
365.2,3.001,11.5625,3.85198,0.494619,1.91063
373.5,2.898,11.182,3.85916,0.501389,1.93674
381.8,4.289,16.4243,3.82943,0.509965,1.96966
390.1,4.263,16.3148,3.82751,0.519791,2.00728
398.4,4.083,15.6306,3.83009,0.529649,2.045
406.7,2.873,11.0726,3.85515,0.537939,2.07679
415.0,5.912,22.463,3.7998,0.545291,2.10507
423.3,6.143,23.2516,3.78327,0.559096,2.15742
431.6,5.783,21.8789,3.78346,0.572882,2.20959
439.9,8.59,32.1119,3.73694,0.58512,2.25583
448.2,5.989,22.5456,3.76345,0.602508,2.32092
456.5,6.066,22.808,3.7592,0.616526,2.37364
464.8,0.04,0.155956,3.89869,0.625621,2.40785
473.1,2.924,11.2134,3.83376,0.629443,2.42251
481.4,4.598,17.4611,3.79774,0.639948,2.46243
489.7,6.787,25.5013,3.75735,0.651343,2.5056
498.0,6.555,24.5829,3.74992,0.666687,2.56319
506.3,5.783,21.7366,3.76003,0.679905,2.61291
514.6,8.461,31.3965,3.70959,0.695025,2.66947
522.9,3.645,13.8196,3.79229,0.706499,2.7125
531.2,3.645,13.8361,3.7955,0.714935,2.7445
539.5,3.697,14.0386,3.79727,0.723402,2.77664
547.8,4.727,17.7752,3.76002,0.741432,2.84346
556.1,4.675,17.5986,3.76677,0.752195,2.88396
564.4,4.65,17.5078,3.76451,0.762953,2.92446
572.7,6.684,24.8952,3.72514,0.7767,2.97586
581.0,6.478,24.1001,3.72026,0.79179,3.03203
589.3,3.053,11.5762,3.79337,0.799009,3.05934
597.6,3.079,11.6901,3.79782,0.805785,3.08507
605.9,3.001,11.4091,3.8028,0.812579,3.11089
614.2,4.16,15.7141,3.7762,0.821054,3.14299
622.5,4.315,16.2744,3.77135,0.830965,3.18038
630.8,4.135,15.6008,3.77276,0.840761,3.21733
639.1,3.156,11.9839,3.79669,0.848951,3.24831
647.4,5.989,22.4171,3.74435,0.856649,3.27746
655.7,5.86,21.881,3.73428,0.870457,3.32906
664.0,5.783,21.5556,3.72699,0.884156,3.38014
672.3,8.719,32.0729,3.67863,0.896569,3.42632
680.6,6.118,22.6651,3.70431,0.913762,3.48969
688.9,6.015,22.2709,3.70234,0.927691,3.54129
697.2,2.95,11.0993,3.76061,0.938827,3.58266
705.5,4.65,17.3692,3.73564,0.946198,3.61037
713.8,4.418,16.5086,3.73683,0.956953,3.65052
722.1,6.555,24.2141,3.69264,0.969411,3.6968
730.4,5.68,21.0102,3.70069,0.984289,3.7517
738.7,5.577,20.6198,3.69764,0.997304,3.79983
747.0,8.461,30.7976,3.63912,1.01383,3.86038
755.3,3.748,13.9694,3.72809,1.0228,3.8937
763.6,3.645,13.6088,3.73342,1.03137,3.92566
771.9,3.594,13.4309,3.73815,1.03982,3.95723
780.2,4.65,17.1923,3.69724,1.05834,4.02461
788.5,4.701,17.3875,3.70022,1.06907,4.06427
796.8,4.753,17.576,3.69756,1.07974,4.10377
805.1,6.607,24.1589,3.65642,1.09433,4.15722
813.4,2.898,10.7827,3.71939,1.10792,4.20698
821.7,2.976,11.0982,3.72846,1.11485,4.23279
830.0,2.873,10.7368,3.73725,1.12166,4.25819
838.3,3.053,11.408,3.73764,1.12849,4.28371
846.6,4.341,16.0959,3.70833,1.13766,4.31781
854.9,4.238,15.7086,3.70748,1.14751,4.35431
863.2,4.289,15.8833,3.70285,1.15733,4.39068
871.5,2.873,10.7297,3.73594,1.165,4.41922
879.8,5.912,21.7274,3.67531,1.17385,4.45204
888.1,5.886,21.5616,3.66425,1.18768,4.50277
896.4,3.413,12.6331,3.70261,1.20076,4.55066
904.7,8.487,30.6056,3.60613,1.21498,4.60234
913.0,6.066,22.0332,3.63131,1.23109,4.66064
921.3,6.169,22.3669,3.62489,1.24512,4.71156
929.6,0.143,0.539448,3.77177,1.25124,4.73377
937.9,4.547,16.7124,3.67335,1.25718,4.75574
946.2,4.675,17.1444,3.66681,1.26786,4.79496
954.5,6.555,23.7759,3.62886,1.28027,4.84024
962.8,5.628,20.4344,3.63068,1.29517,4.89421
971.1,5.809,21.0469,3.62305,1.30831,4.94188
979.4,8.332,29.7535,3.57133,1.32484,5.00125
987.7,3.594,13.1487,3.65715,1.33389,5.03421
996.0,3.568,13.0725,3.66357,1.34235,5.06517
1004.3,3.722,13.6349,3.66245,1.35079,5.09609
1012.6,4.624,16.7621,3.62395,1.3694,5.16248
1020.9,4.701,17.0477,3.62587,1.3801,5.20128
1029.2,4.65,16.8673,3.62598,1.39085,5.24028
1037.5,6.504,23.3236,3.58694,1.40559,5.29321
1045.8,2.873,10.4801,3.64952,1.41922,5.34213
1054.1,3.027,11.0649,3.65732,1.42605,5.36708
1062.4,2.976,10.8997,3.66236,1.43283,5.39187
1070.7,3.001,11.0009,3.6653,1.43964,5.41685
1079.0,4.263,15.5091,3.63721,1.44874,5.45002
1087.3,4.263,15.495,3.63499,1.45866,5.48606
1095.6,4.366,15.8511,3.63081,1.46847,5.52171
1103.9,2.821,10.337,3.66503,1.47602,5.5493
1112.2,6.092,21.9399,3.60213,1.48524,5.58279
1120.5,5.912,21.241,3.59331,1.499,5.63227
1128.8,3.413,12.396,3.63313,1.51173,5.67801
1137.1,8.538,30.2047,3.53733,1.52643,5.73043
1145.4,6.04,21.5362,3.56526,1.54235,5.78698
1153.7,6.143,21.87,3.5606,1.55633,5.8368
1162.0,2.744,9.95753,3.62845,1.56589,5.87108
1170.3,4.727,16.9907,3.59448,1.57411,5.90078
1178.6,4.753,17.071,3.59134,1.58481,5.93924
1186.9,6.581,23.3852,3.55251,1.59832,5.98743
1195.2,5.68,20.2254,3.56075,1.61271,6.03859
1203.5,5.551,19.762,3.56141,1.62568,6.08475
1211.8,3.491,12.5266,3.58763,1.64176,6.14148
1220.1,3.851,13.8224,3.58853,1.65027,6.172
1228.4,3.619,13.0205,3.59652,1.65881,6.20269
1236.7,10.238,35.7696,3.49347,1.66966,6.24136
1245.0,4.701,16.752,3.56375,1.68624,6.29959
1253.3,4.469,15.9516,3.56839,1.69698,6.33788
1261.6,6.53,23.0818,3.5343,1.70803,6.37725
1269.9,6.581,23.199,3.52478,1.72317,6.43071
1278.2,2.898,10.4094,3.59156,1.73502,6.47262
1286.5,2.976,10.7078,3.59844,1.74194,6.49749
1294.8,3.13,11.2674,3.60045,1.74872,6.52192
1303.1,4.289,15.357,3.5816,1.75557,6.54659
1311.4,4.289,15.3422,3.5775,1.76539,6.58175
1319.7,4.315,15.4237,3.57474,1.77525,6.617
1328.0,4.315,15.4171,3.57302,1.78504,6.65201
1336.3,3.079,11.0861,3.60141,1.7921,6.67742
1344.6,6.118,21.6664,3.54189,1.80241,6.71419
1352.9,5.937,20.9892,3.53654,1.81623,6.76306
1361.2,3.568,12.755,3.57405,1.82815,6.80529
1369.5,8.538,29.7295,3.48218,1.84481,6.86359
1377.8,5.989,21.0511,3.51556,1.85971,6.91586
1386.1,6.04,21.2066,3.50973,1.87372,6.96508
1394.4,0.014,0.0512014,3.6581,1.87685,6.97608
1402.7,4.598,16.3332,3.55252,1.88509,7.00549
1411.0,4.521,16.0499,3.55016,1.89577,7.04341
1419.3,6.71,23.5292,3.50548,1.90916,7.09057
1427.6,5.783,20.3253,3.51547,1.9236,7.14122
1435.9,5.396,18.9829,3.5176,1.93669,7.18724
1444.2,3.774,13.3568,3.53742,1.95292,7.24373
1452.5,3.722,13.2025,3.54899,1.96133,7.27356
1460.8,3.619,12.857,3.55066,1.96975,7.30346
1469.1,10.418,35.9064,3.44569,1.98045,7.34113
1477.4,4.572,16.1032,3.52052,1.99733,7.39965
1485.7,4.675,16.4656,3.52376,2.00801,7.43727
1494.0,6.401,22.3541,3.49137,2.01931,7.47701
1502.3,6.401,22.3074,3.48513,2.03441,7.52964
1510.6,2.976,10.5584,3.54758,2.04628,7.57115
1518.9,2.873,10.2192,3.55508,2.05311,7.5954
1527.2,2.795,9.95868,3.56281,2.05984,7.61935
1535.5,4.289,15.1659,3.53726,2.06676,7.64397
1543.8,4.392,15.5094,3.53092,2.07648,7.67835
1552.1,4.289,15.1455,3.53095,2.08639,7.71333
1560.4,4.263,15.0502,3.52985,2.09618,7.74792
1568.7,2.976,10.5925,3.55891,2.10308,7.77245
1577.0,5.989,20.9568,3.4982,2.11385,7.81036
1585.3,5.989,20.9129,3.49133,2.12755,7.85826
1593.6,3.516,12.4279,3.53343,2.13908,7.89865
1601.9,8.487,29.1975,3.43994,2.15635,7.95829
1610.2,6.092,21.1544,3.47274,2.17094,8.00889
1618.5,6.015,20.8768,3.47025,2.18491,8.05738
1626.8,2.847,10.0703,3.53812,2.19287,8.08535
1635.1,4.675,16.3731,3.50286,2.20201,8.11749
1643.4,4.804,16.8068,3.49815,2.21275,8.15507
1651.7,6.504,22.5194,3.46198,2.22723,8.20531
1660.0,5.603,19.4596,3.47189,2.24111,8.25342
1668.3,5.577,19.3591,3.47117,2.25404,8.29833
1676.6,3.594,12.5895,3.50259,2.26917,8.35036
1684.9,3.697,12.9632,3.50546,2.2777,8.38024
1693.2,3.722,13.06,3.50875,2.28624,8.4102
1701.5,10.393,35.2928,3.39515,2.30043,8.45905
1709.8,4.675,16.2657,3.47918,2.31412,8.50622
1718.1,4.701,16.3594,3.47861,2.32487,8.54362
1726.4,6.452,22.2444,3.44804,2.3369,8.58535
1734.7,6.607,22.7164,3.43881,2.35206,8.63751
1743.0,3.027,10.619,3.50795,2.36207,8.67224
1751.3,2.976,10.4604,3.51551,2.36901,8.6966
1759.6,2.976,10.4718,3.52044,2.37577,8.7204
1767.9,4.186,14.6321,3.49375,2.38328,8.74675
1776.2,4.238,14.7994,3.4923,2.39311,8.78109
1784.5,4.289,14.9663,3.48942,2.40296,8.8155
1792.8,2.821,9.92726,3.52006,2.41224,8.84788
1801.1,2.976,10.4714,3.51879,2.41916,8.87223
1809.4,6.092,21.0419,3.45337,2.43101,8.91333
1817.7,5.912,20.3941,3.44844,2.44482,8.96101
1826.0,3.465,12.1098,3.49563,2.4555,8.99801
1834.3,5.989,20.5589,3.43262,2.47438,9.06229
1842.6,6.04,20.7148,3.42942,2.48834,9.11017
1850.9,5.989,20.5264,3.42527,2.50229,9.15801
1851.9,0.014,0.0498976,3.56579,2.50232,9.1581

File: use_case_4.csv
Time [s],Current [A],Power [W],Voltage [V],Capacity [Ah],Energy [Wh]
0.0,-8.33777e-13,-3.12739e-12,3.75163,-0.0,-0.0
20.0,-3.45348e-49,-1.29544e-48,3.7513,-0.000286276,-0.00108347
40.0,-0.891716,-3.37113,3.7783,-0.00155172,-0.00586168
60.0,6.39162e-46,2.40252e-45,3.75858,-0.00558689,-0.0211271
80.0,-4.41739e-50,-1.65895e-49,3.75505,-0.00558689,-0.0211271
100.0,1.59304,5.89167,3.70008,-8.6445e-05,-0.00072281
120.0,1.49709,5.53411,3.69684,0.00462088,0.0167136
140.0,2.30099,8.42787,3.66246,0.0164531,0.0601644
160.0,2.45731,8.96724,3.65014,0.0295114,0.107907
180.0,1.9424,7.10321,3.65557,0.041109,0.150286
200.0,2.66411,9.67628,3.63211,0.054743,0.199919
220.0,2.64465,9.58735,3.6248,0.0696161,0.253877
240.0,1.6394,5.9924,3.65492,0.076319,0.278358
260.0,2.64821,9.59372,3.62239,0.0897854,0.327252
280.0,3.08308,11.1166,3.60384,0.105317,0.383405
300.0,1.4891,5.42896,3.64529,0.115432,0.420087
320.0,1.30276,4.7617,3.65396,0.122089,0.444361
340.0,2.68648e-71,9.9399e-71,3.70099,0.124311,0.452489
360.0,-4.79334e-72,-1.77692e-71,3.70782,0.124311,0.452489
380.0,0.735082,2.71137,3.68737,0.124706,0.453945
400.0,6.2501e-55,2.32041e-54,3.71136,0.125415,0.456558
420.0,-6.17913e-55,-2.29552e-54,3.7149,0.125415,0.456558
440.0,3.81554e-55,1.41807e-54,3.71741,0.125415,0.456558
460.0,-2.38624e-56,-8.87156e-56,3.71811,0.125415,0.456558
480.0,9.55273e-60,3.55302e-59,3.71861,0.125012,0.455055
500.0,-0.865401,-3.24603,3.75061,0.122317,0.444968
520.0,-1.37939,-5.20955,3.77529,0.114713,0.416284
540.0,-0.300024,-1.12371,3.74662,0.110198,0.399259
560.0,-3.32e-42,-1.23919e-41,3.73184,0.109311,0.395937
580.0,-2.89224e-42,-1.07884e-41,3.73017,0.109311,0.395937
600.0,-0.69188,-2.59596,3.75305,0.108264,0.392019
620.0,-1.48414,-5.61729,3.78518,0.101692,0.367219
640.0,-2.88219e-51,-1.079e-50,3.74277,0.0961373,0.34622
660.0,-0.504262,-1.8945,3.75675,0.0939782,0.338105
680.0,-1.54252,-5.8549,3.79503,0.0868651,0.311164
700.0,-9.1527e-55,-3.43064e-54,3.75058,0.0826141,0.295058
720.0,-9.68809e-59,-3.62585e-58,3.74247,0.0826141,0.295058
740.0,-1.06473e-58,-3.98208e-58,3.7414,0.0826141,0.295058
760.0,1.51589e-59,5.66728e-59,3.73893,0.0826141,0.295058
780.0,-9.7236e-61,-3.63441e-60,3.7382,0.0826141,0.295058
800.0,-1.14563e-66,-4.28111e-66,3.73763,0.0828218,0.295829
820.0,-4.56252e-57,-1.70419e-56,3.73484,0.0835473,0.298528
840.0,-0.0931948,-0.348415,3.73875,0.0835214,0.298431
860.0,-0.690605,-2.59543,3.75764,0.0826776,0.295269
880.0,-1.07135,-4.04711,3.77794,0.0775236,0.275835
900.0,-2.05107,-7.83329,3.81864,0.066615,0.234258
920.0,4.21215e-58,1.58125e-57,3.75305,0.063131,0.220968
940.0,1.07021,3.97362,3.71304,0.0647331,0.226933
960.0,-1.51129e-64,-5.65536e-64,3.74393,0.0661018,0.232006
980.0,1.83685,6.76183,3.68158,0.0705823,0.248575
1000.0,1.60953,5.909,3.67301,0.0832807,0.29504
1020.0,1.25659,4.63078,3.686,0.0860152,0.305118
1040.0,1.01203,3.73736,3.69307,0.0897138,0.318733
1060.0,2.29235,8.3658,3.65113,0.0990257,0.352879
1080.0,1.61292,5.90207,3.6578,0.109838,0.392373
1100.0,0.856986,3.16187,3.68926,0.1103,0.394077
1120.0,1.96464,7.17524,3.65231,0.118413,0.423826
1140.0,1.7782,6.4923,3.65092,0.128005,0.458884
1160.0,-2.49365e-51,-9.24706e-51,3.70735,0.130338,0.467407
1180.0,5.96286e-52,2.21463e-51,3.71519,0.130338,0.467407
1200.0,9.91852e-61,3.68689e-60,3.71821,0.130338,0.467407
1220.0,-1.08276,-4.06643,3.75473,0.127936,0.45842
1240.0,-1.26498,-4.76846,3.76963,0.122227,0.436958
1260.0,-2.03005,-7.71529,3.80038,0.113806,0.405101
1280.0,1.2957e-52,4.85278e-52,3.74382,0.106306,0.376601
1300.0,0.262944,0.980644,3.73046,0.106353,0.376778
1320.0,7.21735e-66,2.69296e-65,3.733,0.10863,0.385223
1340.0,-4.13862e-65,-1.54414e-64,3.73053,0.10863,0.385223
1360.0,1.1711,4.32494,3.6916,0.110247,0.391196
1380.0,-0.507294,-1.89941,3.74273,0.110533,0.392232
1400.0,-1.05313,-3.97236,3.77286,0.10389,0.367178
1420.0,-1.08016,-4.07531,3.77198,0.100918,0.355986
1440.0,-0.844063,-3.18421,3.77233,0.0946433,0.332274
1460.0,-3.71125e-51,-1.38864e-50,3.74116,0.0937041,0.328744
1480.0,-0.578826,-2.17611,3.76121,0.0920386,0.322482
1500.0,7.16745e-59,2.68089e-58,3.74111,0.0907845,0.31777
1520.0,-0.894436,-3.37049,3.76967,0.0893033,0.312194
1540.0,-1.13815e-53,-4.25615e-53,3.74151,0.0885838,0.309483
1560.0,-1.48237,-5.61854,3.79076,0.0839772,0.292084
1580.0,-1.28183,-4.865,3.79495,0.0749607,0.257813
1600.0,-1.07388,-4.06816,3.78767,0.0701463,0.239595
1620.0,-2.20822,-8.46239,3.83206,0.0586614,0.195674
1640.0,1.66054e-59,6.24425e-59,3.76096,0.0553897,0.183151
1660.0,-0.503511,-1.89799,3.77204,0.0551467,0.182237
1680.0,-1.27514,-4.84338,3.79722,0.0497945,0.161957
1700.0,-1.65502,-6.31553,3.81629,0.0419756,0.132196
1720.0,-9.55223e-64,-3.59522e-63,3.76442,0.0376987,0.11588
1740.0,-2.1037e-51,-7.90517e-51,3.75799,0.0374927,0.115105
1760.0,-0.298493,-1.12371,3.76534,0.0369694,0.113135
1780.0,-0.41626,-1.56888,3.76891,0.0347667,0.104812
1800.0,5.00427e-60,1.87961e-59,3.75636,0.0329779,0.0980614
1820.0,1.59472,5.90649,3.70258,0.0346147,0.104141
1840.0,2.21303,8.12552,3.67066,0.045053,0.142622
1860.0,1.53597,5.65538,3.68166,0.0541295,0.176005
1880.0,2.46848,9.00914,3.6483,0.0653394,0.217079
1900.0,1.59433,5.85059,3.67003,0.0732921,0.246268
1920.0,1.79692,6.57445,3.65993,0.0834949,0.283612
1940.0,-4.72951e-58,-1.7569e-57,3.71562,0.0878202,0.29944
1960.0,-0.300676,-1.12197,3.73103,0.0876586,0.298837
1980.0,-1.28463,-4.84338,3.7709,0.0841304,0.285599
2000.0,-0.92023,-3.4692,3.76943,0.0777985,0.261713
2020.0,-1.74043e-47,-6.5088e-47,3.73879,0.0761601,0.255546
2040.0,-2.58229e-46,-9.65156e-46,3.73822,0.0761601,0.255546
2060.0,9.03909e-53,3.37766e-52,3.73742,0.0761601,0.255546
2080.0,-0.690479,-2.59596,3.75946,0.0749963,0.251175
2100.0,1.67861e-58,6.282e-58,3.74286,0.071913,0.239582
2120.0,-9.49855e-05,-0.000355214,3.73859,0.071913,0.239582
2140.0,-8.88208e-42,-3.32087e-41,3.74041,0.0717837,0.239098
2160.0,-0.893936,-3.36938,3.76881,0.0697056,0.231287
2180.0,0.000395533,0.00147971,3.74206,0.0685784,0.227024
2200.0,7.18982e-54,2.67986e-53,3.72602,0.0762836,0.255401
2220.0,-3.56865e-58,-1.33197e-57,3.73288,0.0762836,0.255401
2240.0,-0.286303,-1.07203,3.74521,0.0754557,0.252302
2260.0,-0.254121,-0.95154,3.74501,0.0748893,0.250181
2280.0,-2.0262,-7.71618,3.80863,0.0673304,0.221519
2300.0,-1.54742,-5.89119,3.80762,0.0570019,0.182156
2320.0,-1.46924,-5.5933,3.80624,0.0498616,0.155014
2340.0,-1.51781,-5.79024,3.81487,0.040463,0.119138
2360.0,-2.73123,-10.5317,3.85687,0.0280941,0.0716437
2380.0,-2.02959,-7.80581,3.84564,0.0152821,0.0223027
2400.0,-2.95476,-11.4591,3.87826,0.000264487,-0.0357823
2420.0,-1.70107,-6.55029,3.84967,-0.0130241,-0.0872051
2440.0,-1.96184,-7.56637,3.85629,-0.0231651,-0.126279
2460.0,-0.772666,-2.9519,3.82117,-0.0314855,-0.158282
2480.0,-0.668735,-2.54688,3.8086,-0.0343734,-0.169279
2500.0,-1.06582,-4.06732,3.8159,-0.0373625,-0.180659
2520.0,-3.50446,-13.6569,3.8959,-0.0530158,-0.241334
2540.0,-3.13448,-12.2394,3.90412,-0.0717882,-0.314614
2560.0,-2.2596,-8.78719,3.88816,-0.0872427,-0.374893
2580.0,-2.20665,-8.56141,3.88006,-0.0957155,-0.40767
2600.0,-3.23274,-12.6603,3.91467,-0.112623,-0.47372
2620.0,-2.38793,-9.31568,3.89997,-0.127886,-0.533389
2640.0,-2.5194,-9.84599,3.90627,-0.142771,-0.591592
2660.0,-2.00148,-7.78762,3.89038,-0.153175,-0.63208
2680.0,-3.0892,-12.1196,3.92325,-0.167536,-0.688217
2700.0,-3.85342,-15.2285,3.95196,-0.187443,-0.766668
2720.0,-4.29317,-17.0557,3.97457,-0.210225,-0.85696
2740.0,-4.0796,-16.2339,3.9803,-0.234604,-0.954003
2760.0,-3.28368,-13.0082,3.96098,-0.253022,-1.02702
2780.0,-3.09064,-12.2317,3.95824,-0.270424,-1.0959
2800.0,-4.01992,-15.9981,3.97992,-0.288578,-1.16784
2820.0,-3.918,-15.6244,3.98833,-0.311261,-1.25828
2840.0,-2.90001,-11.5082,3.96876,-0.3308,-1.33609
2860.0,-3.04265,-12.0815,3.9699,-0.347607,-1.40282
2880.0,-2.83398,-11.2415,3.96825,-0.364085,-1.46822
2900.0,-3.44176,-13.7165,3.98708,-0.382661,-1.54217
2920.0,-0.486847,-1.89933,3.90236,-0.395533,-1.59322
2940.0,-1.22046,-4.77121,3.9108,-0.398756,-1.60579
2960.0,-1.4876,-5.8283,3.91778,-0.407502,-1.64007
2980.0,-2.29132,-9.03101,3.94182,-0.417466,-1.67922
3000.0,-1.50739,-5.91318,3.92368,-0.428138,-1.72121
3020.0,-1.57493,-6.17987,3.92352,-0.437046,-1.75617
3040.0,2.40444e-61,9.31042e-61,3.8723,-0.443806,-1.78271
3060.0,7.74025e-05,0.000298262,3.855,-0.438748,-1.76343
3080.0,-1.81256e-55,-6.9824e-55,3.85061,-0.438748,-1.76343
3100.0,9.35955e-56,3.60348e-55,3.85097,-0.438748,-1.76343
3120.0,-8.05873e-05,-0.000310127,3.84788,-0.438823,-1.76372
3140.0,-0.298221,-1.15041,3.86028,-0.44015,-1.76884
3160.0,-1.41618,-5.51523,3.89564,-0.444126,-1.78426
3180.0,-1.44015,-5.61854,3.9008,-0.451267,-1.81207
3200.0,-2.06367,-8.10258,3.9261,-0.461254,-1.85118
3220.0,-1.6777,-6.57824,3.92044,-0.47143,-1.89111
3240.0,-0.530207,-2.06006,3.88753,-0.478249,-1.91777
3260.0,-0.443985,-1.72093,3.87714,-0.48029,-1.92569
3280.0,-0.490033,-1.89781,3.87288,-0.481455,-1.9302
3300.0,-0.000109902,-0.000423592,3.85382,-0.481917,-1.93199
3320.0,0.817439,3.12719,3.82641,-0.481213,-1.92929
3340.0,-0.000112336,-0.000432119,3.8463,-0.479178,-1.92154
3360.0,-3.80072e-32,-1.46195e-31,3.84721,-0.479254,-1.92183
3380.0,2.68443e-53,1.0331e-52,3.84931,-0.480841,-1.92796
3400.0,-0.0902034,-0.347235,3.84903,-0.480938,-1.92834
3420.0,-0.670672,-2.59596,3.87067,-0.48408,-1.94049
3440.0,-4.6689e-66,-1.79939e-65,3.85342,-0.489143,-1.96021
3460.0,0.000142676,0.000549127,3.84913,-0.488669,-1.9584
3480.0,1.27264,4.83911,3.80305,-0.483973,-1.94051
3500.0,1.06055e-61,4.06791e-61,3.83713,-0.479353,-1.92297
3520.0,6.7128e-05,0.000257499,3.83697,-0.477975,-1.91773
3540.0,0.981315,3.73731,3.80794,-0.47744,-1.91569
3560.0,5.65869e-69,2.17037e-68,3.83626,-0.474838,-1.9058
3580.0,1.19191,4.52731,3.79925,-0.472645,-1.89746
3598.0,3.75633,13.9818,3.72135,-0.460093,-1.85038